File: Data/Task 3.3 LSV/LSV_EIS_2500 rpm_02_PEIS_C01.txt
freq/Hz	Re(Z)/Ohm	-Im(Z)/Ohm	|Z|/Ohm	Phase(Z)/deg	time/s	<Ewe>/V	<I>/mA	Cs/µF	Cp/µF	cycle number	I Range	|Ewe|/V	|I|/A	Ns	(Q-Qo)/mA.h	Re(Y)/Ohm-1	Im(Y)/Ohm-1	|Y|/Ohm-1	Phase(Y)/deg	Re(C)/nF	Im(C)/nF	|C|/nF	Phase(C)/deg	Re(M)	Im(M)	|M|	Phase(M)/deg	Re(Permittivity)	Im(Permittivity)	|Permittivity|	Phase(Permittivity)/deg	Re(Resistivity)/Ohm.cm	Im(Resistivity)/Ohm.cm	|Resistivity|/Ohm.cm	Phase(Resistivity)/deg	Re(Conductivity)/mS/cm	Im(Conductivity)/mS/cm	|Conductivity|/mS/cm	Phase(Conductivity)/deg	Tan(Delta)	Loss Angle(Delta)/deg	dq/mA.h	Pwe/W	Rwe/Ohm
100004	6.70957	2.29282	7.09051	-18.8665	51.6689	0.291647	-0.0653891	0.694119	0.0725804	1	10	0.00905685	0.00127732	0	-2.61755e-05	0.133457	0.0456053	0.141034	18.8665	72.5804	212.395	224.454	-71.1335	0.0000000E+000	0.0000000E+000	0.0000000E+000	71.1335	0.0000000E+000	0.0000000E+000	0.0000000E+000	-71.1335	0.0000000E+000	0.0000000E+000	0.0000000E+000	-18.8665	0.0000000E+000	0.0000000E+000	0.0000000E+000	18.8665	2.92634	71.1335	-2.61755e-05	-1.90705e-05	4460.18
68262	6.79533	3.41647	7.60584	-26.6918	52.1059	0.291651	-0.064935	0.682439	0.137697	1	10	0.0105152	0.00138252	0	-3.66567e-05	0.117467	0.0590587	0.131478	26.6918	137.697	273.878	306.545	-63.3082	0.0000000E+000	0.0000000E+000	0.0000000E+000	63.3082	0.0000000E+000	0.0000000E+000	0.0000000E+000	-63.3082	0.0000000E+000	0.0000000E+000	0.0000000E+000	-26.6918	0.0000000E+000	0.0000000E+000	0.0000000E+000	26.6918	1.98899	63.3082	-1.04812e-05	-1.89384e-05	4491.44
46596.6	6.9297	4.98634	8.53723	-35.7373	52.5429	0.291639	-0.0652253	0.68499	0.233676	1	10	0.0107995	0.00126499	0	-4.40738e-05	0.0950781	0.0684144	0.117134	35.7373	233.676	324.748	400.082	-54.2627	0.0000000E+000	0.0000000E+000	0.0000000E+000	54.2627	0.0000000E+000	0.0000000E+000	0.0000000E+000	-54.2627	0.0000000E+000	0.0000000E+000	0.0000000E+000	-35.7373	0.0000000E+000	0.0000000E+000	0.0000000E+000	35.7373	1.38974	54.2627	-7.41706e-06	-1.90223e-05	4471.26
31806.7	7.14703	7.23643	10.1708	-45.3561	52.9799	0.291653	-0.0648252	0.691476	0.350036	1	10	0.0109413	0.00107575	0	-5.09877e-05	0.0690895	0.0699537	0.0983203	45.3561	350.036	345.711	491.977	-44.6439	0.0000000E+000	0.0000000E+000	0.0000000E+000	44.6439	0.0000000E+000	0.0000000E+000	0.0000000E+000	-44.6439	0.0000000E+000	0.0000000E+000	0.0000000E+000	-45.3561	0.0000000E+000	0.0000000E+000	0.0000000E+000	45.3561	0.987646	44.6439	-6.91398e-06	-1.89065e-05	4499.07
21711.7	7.51317	10.4574	12.8766	-54.3046	53.4169	0.291646	-0.0652812	0.700973	0.46233	1	10	0.0106243	0.000825092	0	-5.98052e-05	0.0453131	0.0630705	0.0776605	54.3046	462.33	332.162	569.281	-35.6954	0.0000000E+000	0.0000000E+000	0.0000000E+000	35.6954	0.0000000E+000	0.0000000E+000	0.0000000E+000	-35.6954	0.0000000E+000	0.0000000E+000	0.0000000E+000	-54.3046	0.0000000E+000	0.0000000E+000	0.0000000E+000	54.3046	0.718452	35.6954	-8.81742e-06	-1.9039e-05	4467.54
14817.8	8.16274	15.0659	17.1351	-61.5511	53.8539	0.291646	-0.0651677	0.712921	0.551136	1	10	0.0101988	0.000595195	0	-6.74288e-05	0.027801	0.0513123	0.0583596	61.5511	551.136	298.606	626.83	-28.4489	0.0000000E+000	0.0000000E+000	0.0000000E+000	28.4489	0.0000000E+000	0.0000000E+000	0.0000000E+000	-28.4489	0.0000000E+000	0.0000000E+000	0.0000000E+000	-61.5511	0.0000000E+000	0.0000000E+000	0.0000000E+000	61.5511	0.541801	28.4489	-7.62365e-06	-1.90059e-05	4475.31
10113.6	9.29847	21.6115	23.527	-66.72	54.1499	0.29166	-0.0656814	0.728166	0.614424	1	10	0.00952424	0.000404822	0	-7.26515e-05	0.0167988	0.0390438	0.0425043	66.72	614.424	264.359	668.881	-23.28	0.0000000E+000	0.0000000E+000	0.0000000E+000	23.28	0.0000000E+000	0.0000000E+000	0.0000000E+000	-23.28	0.0000000E+000	0.0000000E+000	0.0000000E+000	-66.72	0.0000000E+000	0.0000000E+000	0.0000000E+000	66.72	0.430255	23.28	-5.22274e-06	-1.91566e-05	4440.52
6904.85	11.2635	30.9196	32.9072	-69.9841	54.6989	0.291658	-0.0589772	0.745474	0.658137	1	10	0.0099268	0.00030166	0	-8.13363e-05	0.0104014	0.0285529	0.0303885	69.9841	658.137	239.749	700.446	-20.0159	0.0000000E+000	0.0000000E+000	0.0000000E+000	20.0159	0.0000000E+000	0.0000000E+000	0.0000000E+000	-20.0159	0.0000000E+000	0.0000000E+000	0.0000000E+000	-69.9841	0.0000000E+000	0.0000000E+000	0.0000000E+000	69.9841	0.364285	20.0159	-8.68472e-06	-1.72012e-05	4945.26
4716.51	14.9203	43.8931	46.3597	-71.2259	55.6471	0.291683	-0.0752653	0.768782	0.689152	1	11	0.0100133	0.000215992	0	-9.86115e-05	0.00694219	0.0204228	0.0215705	71.2259	689.152	234.259	727.879	-18.7741	0.0000000E+000	0.0000000E+000	0.0000000E+000	18.7741	0.0000000E+000	0.0000000E+000	0.0000000E+000	-18.7741	0.0000000E+000	0.0000000E+000	0.0000000E+000	-71.2259	0.0000000E+000	0.0000000E+000	0.0000000E+000	71.2259	0.339923	18.7741	-1.72752e-05	-2.19536e-05	3875.4
3216.91	21.5709	61.8678	65.5204	-70.7783	56.1144	0.291684	-0.0752083	0.79968	0.713004	1	11	0.00906629	0.000138373	0	-0.00010817	0.00502475	0.0144116	0.0152624	70.7783	713.004	248.597	755.099	-19.2217	0.0000000E+000	0.0000000E+000	0.0000000E+000	19.2217	0.0000000E+000	0.0000000E+000	0.0000000E+000	-19.2217	0.0000000E+000	0.0000000E+000	0.0000000E+000	-70.7783	0.0000000E+000	0.0000000E+000	0.0000000E+000	70.7783	0.348661	19.2217	-9.55877e-06	-2.19371e-05	3878.35
2195.7	33.6853	85.6297	92.0171	-68.5261	56.8061	0.291677	-0.0753331	0.846491	0.733051	1	11	0.00996591	0.000108305	0	-0.000122389	0.00397836	0.0101132	0.0108675	68.5261	733.051	288.37	787.731	-21.4739	0.0000000E+000	0.0000000E+000	0.0000000E+000	21.4739	0.0000000E+000	0.0000000E+000	0.0000000E+000	-21.4739	0.0000000E+000	0.0000000E+000	0.0000000E+000	-68.5261	0.0000000E+000	0.0000000E+000	0.0000000E+000	68.5261	0.393384	21.4739	-1.42185e-05	-2.19729e-05	3871.82
1500.48	54.883	114.98	127.407	-64.4836	57.2731	0.291679	-0.075302	0.922504	0.751322	1	11	0.00975029	7.65288e-05	0	-0.00013194	0.00338106	0.00708331	0.00784887	64.4836	751.322	358.627	832.525	-25.5164	0.0000000E+000	0.0000000E+000	0.0000000E+000	25.5164	0.0000000E+000	0.0000000E+000	0.0000000E+000	-25.5164	0.0000000E+000	0.0000000E+000	0.0000000E+000	-64.4836	0.0000000E+000	0.0000000E+000	0.0000000E+000	64.4836	0.477327	25.5164	-9.55152e-06	-2.1964e-05	3873.46
1024.02	89.8345	146.434	171.794	-58.4717	57.7403	0.291681	-0.0752892	1.06138	0.771151	1	11	0.00964492	5.61424e-05	0	-0.000141547	0.00304388	0.00496165	0.00582093	58.4717	771.151	473.087	904.702	-31.5283	0.0000000E+000	0.0000000E+000	0.0000000E+000	31.5283	0.0000000E+000	0.0000000E+000	0.0000000E+000	-31.5283	0.0000000E+000	0.0000000E+000	0.0000000E+000	-58.4717	0.0000000E+000	0.0000000E+000	0.0000000E+000	58.4717	0.613482	31.5284	-9.60638e-06	-2.19604e-05	3874.14
698.436	140.677	172.559	222.636	-50.8117	58.2106	0.291677	-0.075313	1.32055	0.793308	1	11	0.0095986	4.31134e-05	0	-0.000151158	0.00283813	0.00348135	0.00449164	50.8117	793.308	646.736	1023.53	-39.1883	0.0000000E+000	0.0000000E+000	0.0000000E+000	39.1883	0.0000000E+000	0.0000000E+000	0.0000000E+000	-39.1883	0.0000000E+000	0.0000000E+000	0.0000000E+000	-50.8117	0.0000000E+000	0.0000000E+000	0.0000000E+000	50.8117	0.815239	39.1883	-9.61115e-06	-2.19671e-05	3872.86
476.984	203.161	184.104	274.169	-42.1827	58.6773	0.291676	-0.0752612	1.8124	0.817224	1	11	0.00957942	3.49398e-05	0	-0.000160739	0.00270274	0.00244921	0.00364738	42.1827	817.224	901.82	1217.02	-47.8173	0.0000000E+000	0.0000000E+000	0.0000000E+000	47.8173	0.0000000E+000	0.0000000E+000	0.0000000E+000	-47.8173	0.0000000E+000	0.0000000E+000	0.0000000E+000	-42.1827	0.0000000E+000	0.0000000E+000	0.0000000E+000	42.1827	1.10352	47.8173	-9.5813e-06	-2.19519e-05	3875.51
325.521	265.811	177.018	319.36	-33.6618	59.3988	0.291695	-0.0761776	2.762	0.848588	1	12	0.00965847	3.02432e-05	0	-0.000175079	0.00260622	0.00173562	0.00313126	33.6618	848.588	1274.25	1530.95	-56.3382	0.0000000E+000	0.0000000E+000	0.0000000E+000	56.3382	0.0000000E+000	0.0000000E+000	0.0000000E+000	-56.3382	0.0000000E+000	0.0000000E+000	0.0000000E+000	-33.6618	0.0000000E+000	0.0000000E+000	0.0000000E+000	33.6618	1.50161	56.3382	-1.43398e-05	-2.22207e-05	3829.15
222.348	317.08	156.172	353.454	-26.2217	59.862	0.291704	-0.076157	4.58335	0.894798	1	12	0.0096078	2.71826e-05	0	-0.00018474	0.00253807	0.00125008	0.00282922	26.2217	894.798	1816.73	2025.13	-63.7783	0.0000000E+000	0.0000000E+000	0.0000000E+000	63.7783	0.0000000E+000	0.0000000E+000	0.0000000E+000	-63.7783	0.0000000E+000	0.0000000E+000	0.0000000E+000	-26.2217	0.0000000E+000	0.0000000E+000	0.0000000E+000	26.2217	2.03032	63.7783	-9.66158e-06	-2.22153e-05	3830.3
151.797	354.617	129.937	377.673	-20.1236	60.3238	0.291694	-0.0761083	8.06908	0.955117	1	12	0.00958737	2.53854e-05	0	-0.000194393	0.00248615	0.000910962	0.00264779	20.1236	955.117	2606.66	2776.13	-69.8765	0.0000000E+000	0.0000000E+000	0.0000000E+000	69.8765	0.0000000E+000	0.0000000E+000	0.0000000E+000	-69.8765	0.0000000E+000	0.0000000E+000	0.0000000E+000	-20.1236	0.0000000E+000	0.0000000E+000	0.0000000E+000	20.1236	2.72915	69.8765	-9.65246e-06	-2.22003e-05	3832.61
103.575	380.259	107.149	395.067	-15.7366	60.7979	0.291697	-0.0761217	14.341	1.0549	1	12	0.00956791	2.42184e-05	0	-0.000204218	0.00243634	0.000686506	0.00253121	15.7366	1054.9	3743.72	3889.51	-74.2634	0.0000000E+000	0.0000000E+000	0.0000000E+000	74.2634	0.0000000E+000	0.0000000E+000	0.0000000E+000	-74.2634	0.0000000E+000	0.0000000E+000	0.0000000E+000	-15.7366	0.0000000E+000	0.0000000E+000	0.0000000E+000	15.7366	3.5489	74.2634	-9.82541e-06	-2.22044e-05	3831.98
70.7471	398.109	89.6703	408.083	-12.6935	61.26	0.291696	-0.0760988	25.0878	1.21133	1	12	0.00957085	2.34532e-05	0	-0.000213832	0.00239059	0.000538458	0.00245048	12.6935	1211.33	5377.95	5512.69	-77.3065	0.0000000E+000	0.0000000E+000	0.0000000E+000	77.3065	0.0000000E+000	0.0000000E+000	0.0000000E+000	-77.3065	0.0000000E+000	0.0000000E+000	0.0000000E+000	-12.6935	0.0000000E+000	0.0000000E+000	0.0000000E+000	12.6935	4.4397	77.3065	-9.61315e-06	-2.21977e-05	3833.12
48.2849	411.743	78.0372	419.073	-10.7319	61.7423	0.291705	-0.0761292	42.2383	1.46464	1	12	0.00956928	2.28344e-05	0	-0.000223859	0.00234448	0.000444347	0.00238622	10.7319	1464.64	7727.79	7865.36	-79.2681	0.0000000E+000	0.0000000E+000	0.0000000E+000	79.2681	0.0000000E+000	0.0000000E+000	0.0000000E+000	-79.2681	0.0000000E+000	0.0000000E+000	0.0000000E+000	-10.7319	0.0000000E+000	0.0000000E+000	0.0000000E+000	10.7319	5.27624	79.2681	-1.00279e-05	-2.22073e-05	3831.72
32.9443	422.889	71.0484	428.816	-9.53703	62.2356	0.2917	-0.0760406	67.9964	1.8666	1	12	0.00956395	2.23031e-05	0	-0.000234095	0.00229977	0.000386378	0.002332	9.53703	1866.6	11110.3	11266	-80.463	0.0000000E+000	0.0000000E+000	0.0000000E+000	80.463	0.0000000E+000	0.0000000E+000	0.0000000E+000	-80.463	0.0000000E+000	0.0000000E+000	0.0000000E+000	-9.53703	0.0000000E+000	0.0000000E+000	0.0000000E+000	9.53703	5.95213	80.463	-1.02354e-05	-2.21811e-05	3836.12
22.482	435.248	70.4637	440.915	-9.19601	62.657	0.291694	-0.0760376	100.466	2.56591	1	12	0.00956933	2.17033e-05	0	-0.000242909	0.00223886	0.000362457	0.00226801	9.19601	2565.91	15849.4	16055.7	-80.804	0.0000000E+000	0.0000000E+000	0.0000000E+000	80.804	0.0000000E+000	0.0000000E+000	0.0000000E+000	-80.804	0.0000000E+000	0.0000000E+000	0.0000000E+000	-9.19601	0.0000000E+000	0.0000000E+000	0.0000000E+000	9.19601	6.17691	80.804	-8.81395e-06	-2.21797e-05	3836.19
15.3588	447.264	74.1188	453.364	-9.40932	63.1155	0.291692	-0.0760827	139.809	3.73679	1	12	0.00956191	2.1091e-05	0	-0.000252447	0.00217606	0.000360608	0.00220573	9.40932	3736.79	22549.3	22856.9	-80.5907	0.0000000E+000	0.0000000E+000	0.0000000E+000	80.5907	0.0000000E+000	0.0000000E+000	0.0000000E+000	-80.5907	0.0000000E+000	0.0000000E+000	0.0000000E+000	-9.40932	0.0000000E+000	0.0000000E+000	0.0000000E+000	9.40932	6.03442	80.5907	-9.53815e-06	-2.21927e-05	3833.88
10.4866	463.049	80.5626	470.005	-9.86968	63.5649	0.291693	-0.0760767	188.388	5.53495	1	12	0.0095613	2.0343e-05	0	-0.000261902	0.00209615	0.000364693	0.00212764	9.86968	5534.95	31813.2	32291.1	-80.1303	0.0000000E+000	0.0000000E+000	0.0000000E+000	80.1303	0.0000000E+000	0.0000000E+000	0.0000000E+000	-80.1303	0.0000000E+000	0.0000000E+000	0.0000000E+000	-9.86968	0.0000000E+000	0.0000000E+000	0.0000000E+000	9.86968	5.7477	80.1303	-9.455e-06	-2.21911e-05	3834.2
7.1543	481.807	89.5348	490.055	-10.5273	63.9119	0.291705	-0.0760469	248.463	8.29383	1	12	0.00956636	1.9521e-05	0	-0.00026893	0.00200624	0.000372822	0.00204059	10.5273	8293.83	44630.9	45395	-79.4727	0.0000000E+000	0.0000000E+000	0.0000000E+000	79.4727	0.0000000E+000	0.0000000E+000	0.0000000E+000	-79.4727	0.0000000E+000	0.0000000E+000	0.0000000E+000	-10.5273	0.0000000E+000	0.0000000E+000	0.0000000E+000	10.5273	5.38122	79.4727	-7.02813e-06	-2.21833e-05	3835.86
4.88281	508.455	100.711	518.333	-11.2037	64.395	0.291694	-0.0760093	323.648	12.2182	1	12	0.00956444	1.84523e-05	0	-0.000279113	0.00189249	0.000374851	0.00192926	11.2037	12218.2	61685.7	62884.1	-78.7963	0.0000000E+000	0.0000000E+000	0.0000000E+000	78.7963	0.0000000E+000	0.0000000E+000	0.0000000E+000	-78.7963	0.0000000E+000	0.0000000E+000	0.0000000E+000	-11.2037	0.0000000E+000	0.0000000E+000	0.0000000E+000	11.2037	5.04866	78.7963	-1.01833e-05	-2.21715e-05	3837.61
3.33298	542.093	104.239	552.024	-10.8845	65.0703	0.2917	-0.075941	458.097	16.3343	1	12	0.00956211	1.73219e-05	0	-0.00029305	0.00177892	0.000342069	0.00181151	10.8845	16334.3	84946.4	86502.7	-79.1155	0.0000000E+000	0.0000000E+000	0.0000000E+000	79.1155	0.0000000E+000	0.0000000E+000	0.0000000E+000	-79.1155	0.0000000E+000	0.0000000E+000	0.0000000E+000	-10.8845	0.0000000E+000	0.0000000E+000	0.0000000E+000	10.8845	5.20048	79.1155	-1.39366e-05	-2.2152e-05	3841.13
2.27637	577.484	99.2262	585.947	-9.74964	66.0346	0.291709	-0.0758761	704.613	20.2063	1	12	0.00956394	1.63222e-05	0	-0.000312866	0.00168199	0.000289008	0.00170664	9.74964	20206.3	117598	119322	-80.2504	0.0000000E+000	0.0000000E+000	0.0000000E+000	80.2504	0.0000000E+000	0.0000000E+000	0.0000000E+000	-80.2504	0.0000000E+000	0.0000000E+000	0.0000000E+000	-9.74964	0.0000000E+000	0.0000000E+000	0.0000000E+000	9.74964	5.81987	80.2504	-1.98161e-05	-2.21338e-05	3844.55
1.55318	608.263	82.4713	613.829	-7.72136	67.4283	0.291708	-0.0758599	1242.5	22.4288	1	12	0.00956156	1.55769e-05	0	-0.000341929	0.00161435	0.000218881	0.00162912	7.72136	22428.8	165423	166936	-82.2786	0.0000000E+000	0.0000000E+000	0.0000000E+000	82.2786	0.0000000E+000	0.0000000E+000	0.0000000E+000	-82.2786	0.0000000E+000	0.0000000E+000	0.0000000E+000	-7.72136	0.0000000E+000	0.0000000E+000	0.0000000E+000	7.72136	7.37545	82.2786	-2.90634e-05	-2.2129e-05	3845.36
1.06148	628.49	65.2756	631.87	-5.92954	69.4466	0.291703	-0.0758157	2296.98	24.5134	1	12	0.00956353	1.51353e-05	0	-0.000384566	0.00157414	0.000163491	0.0015826	5.92954	24513.3	236021	237290	-84.0705	0.0000000E+000	0.0000000E+000	0.0000000E+000	84.0705	0.0000000E+000	0.0000000E+000	0.0000000E+000	-84.0705	0.0000000E+000	0.0000000E+000	0.0000000E+000	-5.92954	0.0000000E+000	0.0000000E+000	0.0000000E+000	5.92954	9.62825	84.0705	-4.26364e-05	-2.21157e-05	3847.53
0.72338	641.962	46.7777	643.664	-4.16759	72.3892	0.291702	-0.075775	4703.43	24.8413	1	12	0.0095623	1.4856e-05	0	-0.000446995	0.0015495	0.000112907	0.00155361	4.16759	24841.3	340914	341818	-85.8324	0.0000000E+000	0.0000000E+000	0.0000000E+000	85.8324	0.0000000E+000	0.0000000E+000	0.0000000E+000	-85.8324	0.0000000E+000	0.0000000E+000	0.0000000E+000	-4.16759	0.0000000E+000	0.0000000E+000	0.0000000E+000	4.16759	13.7237	85.8324	-6.24291e-05	-2.21037e-05	3849.58
0.494337	647.002	33.8234	647.885	-2.99254	76.6771	0.291707	-0.0757262	9518.75	25.9429	1	12	0.00956139	1.47578e-05	0	-0.000537713	0.00154138	8.05789e-05	0.00154348	2.99254	25942.9	496257	496934	-87.0075	0.0000000E+000	0.0000000E+000	0.0000000E+000	87.0075	0.0000000E+000	0.0000000E+000	0.0000000E+000	-87.0075	0.0000000E+000	0.0000000E+000	0.0000000E+000	-2.99254	0.0000000E+000	0.0000000E+000	0.0000000E+000	2.99254	19.1288	87.0075	-9.07184e-05	-2.20899e-05	3852.13
0.33724	650.435	23.4601	650.858	-2.06566	82.9444	0.291706	-0.0756751	20116.5	26.1359	1	12	0.00956355	1.46938e-05	0	-0.000669362	0.00153544	5.53805e-05	0.00153643	2.06566	26136	724624	725095	-87.9343	0.0000000E+000	0.0000000E+000	0.0000000E+000	87.9343	0.0000000E+000	0.0000000E+000	0.0000000E+000	-87.9343	0.0000000E+000	0.0000000E+000	0.0000000E+000	-2.06566	0.0000000E+000	0.0000000E+000	0.0000000E+000	2.06566	27.7252	87.9343	-0.000131649	-2.20749e-05	3854.71
0.230321	652.221	16.0308	652.418	-1.40798	92.1038	0.291709	-0.0756288	43105.2	26.0249	1	12	0.0095645	1.46601e-05	0	-0.000860518	0.0015323	3.7662e-05	0.00153276	1.40798	26025	1.05884e+06	1.05916e+06	-88.592	0.0000000E+000	0.0000000E+000	0.0000000E+000	88.592	0.0000000E+000	0.0000000E+000	0.0000000E+000	-88.592	0.0000000E+000	0.0000000E+000	0.0000000E+000	-1.40798	0.0000000E+000	0.0000000E+000	0.0000000E+000	1.40798	40.6855	88.592	-0.000191156	-2.20616e-05	3857.12
0.157263	652.554	10.7271	652.642	-0.941782	105.5	0.291707	-0.0755893	94343.2	25.4875	1	12	0.00956239	1.46518e-05	0	-0.00113904	0.00153203	2.51845e-05	0.00153223	0.941782	25487.4	1.55046e+06	1.55067e+06	-89.0582	0.0000000E+000	0.0000000E+000	0.0000000E+000	89.0582	0.0000000E+000	0.0000000E+000	0.0000000E+000	-89.0582	0.0000000E+000	0.0000000E+000	0.0000000E+000	-0.941782	0.0000000E+000	0.0000000E+000	0.0000000E+000	0.941782	60.8321	89.0582	-0.000278523	-2.20499e-05	3859.1
0.107379	652.937	7.34044	652.979	-0.644102	125.106	0.291706	-0.0755302	201919	25.5166	1	12	0.0095629	1.4645e-05	0	-0.00154659	0.00153135	1.72157e-05	0.00153144	0.644102	25516.7	2.26972e+06	2.26986e+06	-89.3559	0.0000000E+000	0.0000000E+000	0.0000000E+000	89.3559	0.0000000E+000	0.0000000E+000	0.0000000E+000	-89.3559	0.0000000E+000	0.0000000E+000	0.0000000E+000	-0.644102	0.0000000E+000	0.0000000E+000	0.0000000E+000	0.644102	88.9507	89.3559	-0.000407547	-2.20326e-05	3862.12
0.0732908	652.906	4.75429	652.923	-0.417205	153.815	0.291707	-0.0754799	456757	24.2176	1	12	0.0095647	1.4649e-05	0	-0.00214521	0.00153153	1.11522e-05	0.00153157	0.417205	24217.7	3.32581e+06	3.3259e+06	-89.5828	0.0000000E+000	0.0000000E+000	0.0000000E+000	89.5828	0.0000000E+000	0.0000000E+000	0.0000000E+000	-89.5828	0.0000000E+000	0.0000000E+000	0.0000000E+000	-0.417205	0.0000000E+000	0.0000000E+000	0.0000000E+000	0.417205	137.33	89.5828	-0.000598619	-2.2018e-05	3864.69
0.0500352	653.645	3.32116	653.653	-0.291116	195.853	0.291697	-0.0754477	957756	24.7251	1	12	0.00956448	1.46323e-05	0	-0.00302588	0.00152984	7.7731e-06	0.00152986	0.291116	24725	4.86621e+06	4.86628e+06	-89.7089	0.0000000E+000	0.0000000E+000	0.0000000E+000	89.7089	0.0000000E+000	0.0000000E+000	0.0000000E+000	-89.7089	0.0000000E+000	0.0000000E+000	0.0000000E+000	-0.291116	0.0000000E+000	0.0000000E+000	0.0000000E+000	0.291116	196.812	89.7089	-0.000880675	-2.20079e-05	3866.22