File: Data/Task 3.3 LSV/LSV_EIS_251rpm_02_PEIS_C01.txt
freq/Hz	Re(Z)/Ohm	-Im(Z)/Ohm	|Z|/Ohm	Phase(Z)/deg	time/s	<Ewe>/V	<I>/mA	Cs/µF	Cp/µF	cycle number	I Range	|Ewe|/V	|I|/A	Ns	(Q-Qo)/mA.h	Re(Y)/Ohm-1	Im(Y)/Ohm-1	|Y|/Ohm-1	Phase(Y)/deg	Re(C)/nF	Im(C)/nF	|C|/nF	Phase(C)/deg	Re(M)	Im(M)	|M|	Phase(M)/deg	Re(Permittivity)	Im(Permittivity)	|Permittivity|	Phase(Permittivity)/deg	Re(Resistivity)/Ohm.cm	Im(Resistivity)/Ohm.cm	|Resistivity|/Ohm.cm	Phase(Resistivity)/deg	Re(Conductivity)/mS/cm	Im(Conductivity)/mS/cm	|Conductivity|/mS/cm	Phase(Conductivity)/deg	Tan(Delta)	Loss Angle(Delta)/deg	dq/mA.h	Pwe/W	Rwe/Ohm
100004	6.78074	2.14346	7.11146	-17.5423	51.6699	0.291691	-0.0301319	0.742485	0.0674532	1	10	0.00903577	0.00127059	0	-1.20178e-05	0.134079	0.0423837	0.140618	17.5423	67.4532	213.385	223.792	-72.4577	0.0000000E+000	0.0000000E+000	0.0000000E+000	72.4577	0.0000000E+000	0.0000000E+000	0.0000000E+000	-72.4577	0.0000000E+000	0.0000000E+000	0.0000000E+000	-17.5423	0.0000000E+000	0.0000000E+000	0.0000000E+000	17.5423	3.16345	72.4577	-1.20178e-05	-8.7892e-06	9680.44
68262	6.85952	3.18677	7.56363	-24.9185	52.1069	0.291685	-0.0292776	0.731628	0.129877	1	10	0.0105029	0.00138861	0	-1.40405e-05	0.119904	0.0557046	0.132212	24.9185	129.877	279.56	308.256	-65.0815	0.0000000E+000	0.0000000E+000	0.0000000E+000	65.0815	0.0000000E+000	0.0000000E+000	0.0000000E+000	-65.0815	0.0000000E+000	0.0000000E+000	0.0000000E+000	-24.9185	0.0000000E+000	0.0000000E+000	0.0000000E+000	24.9185	2.1525	65.0815	-2.02267e-06	-8.53985e-06	9962.73
46596.6	7.02073	4.64337	8.41734	-33.4798	52.5439	0.291676	-0.0313008	0.735584	0.223846	1	10	0.0107818	0.0012809	0	-1.88026e-05	0.0990907	0.0655366	0.118802	33.4798	223.846	338.453	405.78	-56.5202	0.0000000E+000	0.0000000E+000	0.0000000E+000	56.5202	0.0000000E+000	0.0000000E+000	0.0000000E+000	-56.5202	0.0000000E+000	0.0000000E+000	0.0000000E+000	-33.4798	0.0000000E+000	0.0000000E+000	0.0000000E+000	33.4798	1.51199	56.5202	-4.76209e-06	-9.12971e-06	9318.5
31806.7	7.23795	6.71388	9.87239	-42.8488	52.9809	0.291668	-0.0309341	0.745294	0.344691	1	10	0.0108567	0.00109971	0	-2.1785e-05	0.0742627	0.0688857	0.101293	42.8488	344.691	371.597	506.85	-47.1512	0.0000000E+000	0.0000000E+000	0.0000000E+000	47.1512	0.0000000E+000	0.0000000E+000	0.0000000E+000	-47.1512	0.0000000E+000	0.0000000E+000	0.0000000E+000	-42.8488	0.0000000E+000	0.0000000E+000	0.0000000E+000	42.8488	1.07806	47.1512	-2.98236e-06	-9.0225e-06	9428.67
21711.7	7.61392	9.66313	12.3024	-51.7642	53.4179	0.291679	-0.0304093	0.758592	0.468024	1	10	0.0106356	0.000864518	0	-2.49808e-05	0.0503074	0.0638472	0.0812853	51.7642	468.024	368.772	595.852	-38.2358	0.0000000E+000	0.0000000E+000	0.0000000E+000	38.2358	0.0000000E+000	0.0000000E+000	0.0000000E+000	-38.2358	0.0000000E+000	0.0000000E+000	0.0000000E+000	-51.7642	0.0000000E+000	0.0000000E+000	0.0000000E+000	51.7642	0.787935	38.2358	-3.19583e-06	-8.86975e-06	9591.78
14817.8	8.25923	13.8545	16.1296	-59.1992	53.8549	0.291683	-0.0307704	0.775257	0.571984	1	10	0.0103042	0.000638838	0	-2.77157e-05	0.0317464	0.0532533	0.061998	59.1992	571.984	340.982	665.909	-30.8009	0.0000000E+000	0.0000000E+000	0.0000000E+000	30.8009	0.0000000E+000	0.0000000E+000	0.0000000E+000	-30.8009	0.0000000E+000	0.0000000E+000	0.0000000E+000	-59.1992	0.0000000E+000	0.0000000E+000	0.0000000E+000	59.1992	0.59614	30.8008	-2.7349e-06	-8.9752e-06	9479.36
10113.6	9.31232	19.8113	21.8908	-64.8241	54.1509	0.291682	-0.0311054	0.794332	0.650587	1	10	0.00971191	0.000443652	0	-3.03834e-05	0.0194327	0.0413418	0.0456812	64.8241	650.587	305.808	718.875	-25.1759	0.0000000E+000	0.0000000E+000	0.0000000E+000	25.1759	0.0000000E+000	0.0000000E+000	0.0000000E+000	-25.1759	0.0000000E+000	0.0000000E+000	0.0000000E+000	-64.8241	0.0000000E+000	0.0000000E+000	0.0000000E+000	64.8241	0.47005	25.1759	-2.66775e-06	-9.07289e-06	9377.22
6904.85	11.1415	28.332	30.444	-68.533	54.5249	0.291682	-0.0256911	0.813557	0.704596	1	10	0.00916884	0.000301171	0	-3.27295e-05	0.0120209	0.0305685	0.0328472	68.533	704.596	277.08	757.119	-21.467	0.0000000E+000	0.0000000E+000	0.0000000E+000	21.467	0.0000000E+000	0.0000000E+000	0.0000000E+000	-21.467	0.0000000E+000	0.0000000E+000	0.0000000E+000	-68.533	0.0000000E+000	0.0000000E+000	0.0000000E+000	68.533	0.393246	21.467	-2.34606e-06	-7.49362e-06	11353.4
4716.51	14.4202	40.1389	42.6506	-70.2388	55.6961	0.291714	-0.0411006	0.840685	0.744585	1	11	0.0101742	0.000238548	0	-4.39109e-05	0.00792721	0.0220656	0.0234463	70.2388	744.585	267.498	791.177	-19.7612	0.0000000E+000	0.0000000E+000	0.0000000E+000	19.7612	0.0000000E+000	0.0000000E+000	0.0000000E+000	-19.7612	0.0000000E+000	0.0000000E+000	0.0000000E+000	-70.2388	0.0000000E+000	0.0000000E+000	0.0000000E+000	70.2388	0.359257	19.7612	-1.11814e-05	-1.19896e-05	7097.56
3216.91	20.3564	56.4482	60.0065	-70.1696	56.1634	0.291699	-0.0410669	0.876457	0.775593	1	11	0.00914378	0.00015238	0	-4.92672e-05	0.00565332	0.0156766	0.0166649	70.1696	775.593	279.695	824.484	-19.8304	0.0000000E+000	0.0000000E+000	0.0000000E+000	19.8304	0.0000000E+000	0.0000000E+000	0.0000000E+000	-19.8304	0.0000000E+000	0.0000000E+000	0.0000000E+000	-70.1696	0.0000000E+000	0.0000000E+000	0.0000000E+000	70.1696	0.360621	19.8304	-5.35625e-06	-1.19792e-05	7103.04
2195.7	30.9165	78.1615	84.0539	-68.4189	56.8561	0.291696	-0.0411278	0.927371	0.801907	1	11	0.00987427	0.000117475	0	-5.70095e-05	0.00437598	0.0110631	0.0118971	68.4189	801.907	317.192	862.361	-21.5811	0.0000000E+000	0.0000000E+000	0.0000000E+000	21.5811	0.0000000E+000	0.0000000E+000	0.0000000E+000	-21.5811	0.0000000E+000	0.0000000E+000	0.0000000E+000	-68.4189	0.0000000E+000	0.0000000E+000	0.0000000E+000	68.4189	0.395547	21.5811	-7.74238e-06	-1.19968e-05	7092.43
1500.48	49.2422	105.056	116.024	-64.8864	57.3231	0.291696	-0.0411351	1.00965	0.827782	1	11	0.00963627	8.30542e-05	0	-6.22714e-05	0.00365799	0.00780416	0.00861892	64.8864	827.782	388.001	914.203	-25.1136	0.0000000E+000	0.0000000E+000	0.0000000E+000	25.1136	0.0000000E+000	0.0000000E+000	0.0000000E+000	-25.1136	0.0000000E+000	0.0000000E+000	0.0000000E+000	-64.8864	0.0000000E+000	0.0000000E+000	0.0000000E+000	64.8864	0.468724	25.1136	-5.26181e-06	-1.19989e-05	7091.18
1024.02	79.7302	135.588	157.292	-59.543	57.7903	0.291691	-0.0410784	1.14629	0.851761	1	11	0.00953066	6.0592e-05	0	-6.75665e-05	0.00322261	0.0054803	0.00635759	59.543	851.761	500.865	988.111	-30.457	0.0000000E+000	0.0000000E+000	0.0000000E+000	30.457	0.0000000E+000	0.0000000E+000	0.0000000E+000	-30.457	0.0000000E+000	0.0000000E+000	0.0000000E+000	-59.543	0.0000000E+000	0.0000000E+000	0.0000000E+000	59.543	0.588035	30.457	-5.29518e-06	-1.19822e-05	7100.84
698.436	125.622	163.607	206.272	-52.4818	58.2596	0.291695	-0.0412509	1.39281	0.876223	1	11	0.00947794	4.59488e-05	0	-7.28295e-05	0.00295248	0.00384522	0.00484797	52.4818	876.223	672.791	1104.72	-37.5182	0.0000000E+000	0.0000000E+000	0.0000000E+000	37.5182	0.0000000E+000	0.0000000E+000	0.0000000E+000	-37.5182	0.0000000E+000	0.0000000E+000	0.0000000E+000	-52.4818	0.0000000E+000	0.0000000E+000	0.0000000E+000	52.4818	0.767831	37.5182	-5.26291e-06	-1.20327e-05	7071.23
476.984	183.555	179.643	256.835	-44.383	58.7263	0.291695	-0.0412459	1.8574	0.9087	1	11	0.00945429	3.68108e-05	0	-7.80416e-05	0.00278265	0.00272335	0.00389356	44.383	908.7	928.484	1299.16	-45.617	0.0000000E+000	0.0000000E+000	0.0000000E+000	45.617	0.0000000E+000	0.0000000E+000	0.0000000E+000	-45.617	0.0000000E+000	0.0000000E+000	0.0000000E+000	-44.383	0.0000000E+000	0.0000000E+000	0.0000000E+000	44.383	1.02177	45.617	-5.21217e-06	-1.20312e-05	7072.09
325.521	245.461	178.631	303.579	-36.0446	59.4478	0.291724	-0.0419979	2.73707	0.947663	1	12	0.00953359	3.1404e-05	0	-8.58925e-05	0.00266342	0.00193826	0.00329404	36.0446	947.663	1302.21	1610.53	-53.9554	0.0000000E+000	0.0000000E+000	0.0000000E+000	53.9554	0.0000000E+000	0.0000000E+000	0.0000000E+000	-53.9554	0.0000000E+000	0.0000000E+000	0.0000000E+000	-36.0446	0.0000000E+000	0.0000000E+000	0.0000000E+000	36.0446	1.37413	53.9554	-7.85084e-06	-1.22518e-05	6946.15
222.348	300.544	162.96	341.881	-28.4673	59.911	0.29172	-0.0420254	4.39244	0.997971	1	12	0.00949486	2.77724e-05	0	-9.11829e-05	0.00257133	0.00139422	0.00292499	28.4673	997.971	1840.54	2093.69	-61.5327	0.0000000E+000	0.0000000E+000	0.0000000E+000	61.5327	0.0000000E+000	0.0000000E+000	0.0000000E+000	-61.5327	0.0000000E+000	0.0000000E+000	0.0000000E+000	-28.4673	0.0000000E+000	0.0000000E+000	0.0000000E+000	28.4673	1.84428	61.5327	-5.29045e-06	-1.22597e-05	6941.52
151.797	342.017	139.305	369.299	-22.1613	60.3728	0.291717	-0.0420212	7.52642	1.07095	1	12	0.00946003	2.56162e-05	0	-9.64656e-05	0.00250779	0.00102144	0.00270783	22.1613	1070.95	2629.35	2839.08	-67.8387	0.0000000E+000	0.0000000E+000	0.0000000E+000	67.8387	0.0000000E+000	0.0000000E+000	0.0000000E+000	-67.8387	0.0000000E+000	0.0000000E+000	0.0000000E+000	-22.1613	0.0000000E+000	0.0000000E+000	0.0000000E+000	22.1613	2.45516	67.8387	-5.28272e-06	-1.22583e-05	6942.14
103.575	372.422	116.831	390.318	-17.417	60.8459	0.291714	-0.0420333	13.1524	1.17839	1	12	0.00945061	2.42126e-05	0	-0.000101908	0.00244455	0.000766872	0.00256201	17.417	1178.39	3756.34	3936.84	-72.583	0.0000000E+000	0.0000000E+000	0.0000000E+000	72.583	0.0000000E+000	0.0000000E+000	0.0000000E+000	-72.583	0.0000000E+000	0.0000000E+000	0.0000000E+000	-17.417	0.0000000E+000	0.0000000E+000	0.0000000E+000	17.417	3.18769	72.583	-5.44276e-06	-1.22617e-05	6940.07
70.7471	392.787	98.6223	404.979	-14.0947	61.3091	0.291713	-0.0419698	22.8106	1.35276	1	12	0.0094465	2.33259e-05	0	-0.000107239	0.00239493	0.000601326	0.00246926	14.0947	1352.76	5387.71	5554.94	-75.9053	0.0000000E+000	0.0000000E+000	0.0000000E+000	75.9053	0.0000000E+000	0.0000000E+000	0.0000000E+000	-75.9053	0.0000000E+000	0.0000000E+000	0.0000000E+000	-14.0947	0.0000000E+000	0.0000000E+000	0.0000000E+000	14.0947	3.98274	75.9053	-5.331e-06	-1.22431e-05	6950.56
48.2849	408.728	86.0775	417.693	-11.8926	61.7902	0.291719	-0.0419051	38.293	1.62624	1	12	0.0094409	2.26025e-05	0	-0.000112743	0.00234271	0.000493372	0.0023941	11.8926	1626.23	7721.96	7891.35	-78.1074	0.0000000E+000	0.0000000E+000	0.0000000E+000	78.1074	0.0000000E+000	0.0000000E+000	0.0000000E+000	-78.1074	0.0000000E+000	0.0000000E+000	0.0000000E+000	-11.8926	0.0000000E+000	0.0000000E+000	0.0000000E+000	11.8926	4.74837	78.1074	-5.50329e-06	-1.22245e-05	6961.41
32.9443	422.854	79.5855	430.278	-10.659	62.2837	0.291705	-0.0418635	60.7024	2.07671	1	12	0.00944609	2.19534e-05	0	-0.000118401	0.00228398	0.000429868	0.00232408	10.659	2076.71	11034	11227.7	-79.341	0.0000000E+000	0.0000000E+000	0.0000000E+000	79.341	0.0000000E+000	0.0000000E+000	0.0000000E+000	-79.341	0.0000000E+000	0.0000000E+000	0.0000000E+000	-10.659	0.0000000E+000	0.0000000E+000	0.0000000E+000	10.659	5.3132	79.341	-5.65803e-06	-1.22118e-05	6968.01
22.482	435.43	76.1963	442.047	-9.92573	62.7051	0.291715	-0.0419475	92.9076	2.76046	1	12	0.00943762	2.13498e-05	0	-0.000123174	0.00222834	0.000389939	0.0022622	9.92573	2760.46	15774.9	16014.6	-80.0743	0.0000000E+000	0.0000000E+000	0.0000000E+000	80.0743	0.0000000E+000	0.0000000E+000	0.0000000E+000	-80.0743	0.0000000E+000	0.0000000E+000	0.0000000E+000	-9.92573	0.0000000E+000	0.0000000E+000	0.0000000E+000	9.92573	5.71459	80.0743	-4.77353e-06	-1.22367e-05	6954.28
15.3588	448.397	78.4105	455.201	-9.91893	63.1635	0.291712	-0.0418524	132.157	3.92131	1	12	0.00943909	2.07361e-05	0	-0.000128401	0.00216399	0.000378414	0.00219683	9.91893	3921.31	22424.3	22764.6	-80.0811	0.0000000E+000	0.0000000E+000	0.0000000E+000	80.0811	0.0000000E+000	0.0000000E+000	0.0000000E+000	-80.0811	0.0000000E+000	0.0000000E+000	0.0000000E+000	-9.91893	0.0000000E+000	0.0000000E+000	0.0000000E+000	9.91893	5.71859	80.0811	-5.22683e-06	-1.22088e-05	6970.02
10.4866	463.178	84.3786	470.801	-10.3245	63.6129	0.291708	-0.0418951	179.868	5.77754	1	12	0.00944009	2.00511e-05	0	-0.000133502	0.00208965	0.000380677	0.00212404	10.3245	5777.54	31714.6	32236.5	-79.6755	0.0000000E+000	0.0000000E+000	0.0000000E+000	79.6755	0.0000000E+000	0.0000000E+000	0.0000000E+000	-79.6755	0.0000000E+000	0.0000000E+000	0.0000000E+000	-10.3245	0.0000000E+000	0.0000000E+000	0.0000000E+000	10.3245	5.48929	79.6755	-5.10048e-06	-1.22211e-05	6962.83
7.1543	480.682	94.3854	489.861	-11.1091	63.9599	0.29172	-0.0418229	235.694	8.75007	1	12	0.00943527	1.92611e-05	0	-0.000137681	0.00200314	0.000393332	0.00204139	11.1091	8750.07	44562	45413	-78.8909	0.0000000E+000	0.0000000E+000	0.0000000E+000	78.8909	0.0000000E+000	0.0000000E+000	0.0000000E+000	-78.8909	0.0000000E+000	0.0000000E+000	0.0000000E+000	-11.1091	0.0000000E+000	0.0000000E+000	0.0000000E+000	11.1091	5.09276	78.8909	-4.17961e-06	-1.22006e-05	6975.13
4.88281	499.937	108.595	511.596	-12.2553	64.441	0.291718	-0.0419406	300.15	13.5241	1	12	0.00943567	1.84436e-05	0	-0.000142997	0.00191012	0.000414914	0.00195467	12.2553	13524.1	62260.4	63712.3	-77.7447	0.0000000E+000	0.0000000E+000	0.0000000E+000	77.7447	0.0000000E+000	0.0000000E+000	0.0000000E+000	-77.7447	0.0000000E+000	0.0000000E+000	0.0000000E+000	-12.2553	0.0000000E+000	0.0000000E+000	0.0000000E+000	12.2553	4.60367	77.7447	-5.3158e-06	-1.22348e-05	6955.51
3.33298	522.594	124.807	537.291	-13.4319	65.1163	0.291724	-0.0417701	382.604	20.6446	1	12	0.00944165	1.75727e-05	0	-0.00015055	0.00181028	0.000432334	0.00186119	13.4319	20644.6	86443.7	88874.7	-76.5681	0.0000000E+000	0.0000000E+000	0.0000000E+000	76.5681	0.0000000E+000	0.0000000E+000	0.0000000E+000	-76.5681	0.0000000E+000	0.0000000E+000	0.0000000E+000	-13.4319	0.0000000E+000	0.0000000E+000	0.0000000E+000	13.4319	4.18723	76.5681	-7.55266e-06	-1.21853e-05	6984.03
2.27637	549.248	151.052	569.641	-15.3771	66.0796	0.291727	-0.041701	462.862	32.5463	1	12	0.00943657	1.65658e-05	0	-0.000161864	0.00169265	0.000465505	0.00175549	15.3771	32546.3	118343	122737	-74.6229	0.0000000E+000	0.0000000E+000	0.0000000E+000	74.6229	0.0000000E+000	0.0000000E+000	0.0000000E+000	-74.6229	0.0000000E+000	0.0000000E+000	0.0000000E+000	-15.3771	0.0000000E+000	0.0000000E+000	0.0000000E+000	15.3771	3.63616	74.6229	-1.13145e-05	-1.21653e-05	6995.7
1.55318	583.065	176.644	609.236	-16.8546	67.4732	0.291729	-0.0417529	580.096	48.767	1	12	0.00943958	1.54941e-05	0	-0.000178286	0.00157089	0.000475913	0.0016414	16.8546	48767	160970	168195	-73.1454	0.0000000E+000	0.0000000E+000	0.0000000E+000	73.1454	0.0000000E+000	0.0000000E+000	0.0000000E+000	-73.1454	0.0000000E+000	0.0000000E+000	0.0000000E+000	-16.8546	0.0000000E+000	0.0000000E+000	0.0000000E+000	16.8546	3.3008	73.1454	-1.64223e-05	-1.21805e-05	6987.02
1.06148	629.824	214.947	665.493	-18.8438	69.4908	0.291722	-0.0417128	697.551	72.77	1	12	0.00943899	1.41835e-05	0	-0.000201612	0.00142211	0.000485339	0.00150265	18.8438	72770	213226	225302	-71.1562	0.0000000E+000	0.0000000E+000	0.0000000E+000	71.1562	0.0000000E+000	0.0000000E+000	0.0000000E+000	-71.1562	0.0000000E+000	0.0000000E+000	0.0000000E+000	-18.8438	0.0000000E+000	0.0000000E+000	0.0000000E+000	18.8438	2.93014	71.1562	-2.33251e-05	-1.21685e-05	6993.57
0.72338	684.417	255.269	730.472	-20.4541	72.4341	0.29173	-0.0416685	861.898	105.255	1	12	0.00943751	1.29197e-05	0	-0.000235102	0.00128267	0.0004784	0.00136898	20.4541	105255	282207	301197	-69.5459	0.0000000E+000	0.0000000E+000	0.0000000E+000	69.5459	0.0000000E+000	0.0000000E+000	0.0000000E+000	-69.5459	0.0000000E+000	0.0000000E+000	0.0000000E+000	-20.4541	0.0000000E+000	0.0000000E+000	0.0000000E+000	20.4541	2.68116	69.5459	-3.34901e-05	-1.21559e-05	7001.21
0.494337	763.713	292.926	817.963	-20.9846	76.7221	0.291728	-0.0416295	1099.1	140.958	1	12	0.00943874	1.15393e-05	0	-0.000283817	0.00114147	0.000437816	0.00122255	20.9846	140958	367502	393608	-69.0154	0.0000000E+000	0.0000000E+000	0.0000000E+000	69.0154	0.0000000E+000	0.0000000E+000	0.0000000E+000	-69.0154	0.0000000E+000	0.0000000E+000	0.0000000E+000	-20.9846	0.0000000E+000	0.0000000E+000	0.0000000E+000	20.9846	2.60718	69.0154	-4.87153e-05	-1.21445e-05	7007.72
0.33724	871.93	314.808	927.02	-19.852	82.9882	0.291726	-0.0415981	1499.12	172.881	1	12	0.00943892	1.0182e-05	0	-0.000355443	0.00101462	0.000366325	0.00107873	19.852	172881	478834	509087	-70.148	0.0000000E+000	0.0000000E+000	0.0000000E+000	70.148	0.0000000E+000	0.0000000E+000	0.0000000E+000	-70.148	0.0000000E+000	0.0000000E+000	0.0000000E+000	-19.852	0.0000000E+000	0.0000000E+000	0.0000000E+000	19.852	2.76972	70.148	-7.16257e-05	-1.21353e-05	7012.98
0.230321	983.145	304.923	1029.35	-17.2313	92.1478	0.291728	-0.0415911	2266.18	198.863	1	12	0.0094387	9.16961e-06	0	-0.000461089	0.000927887	0.000287785	0.000971491	17.2313	198863	641182	671312	-72.7687	0.0000000E+000	0.0000000E+000	0.0000000E+000	72.7687	0.0000000E+000	0.0000000E+000	0.0000000E+000	-72.7687	0.0000000E+000	0.0000000E+000	0.0000000E+000	-17.2313	0.0000000E+000	0.0000000E+000	0.0000000E+000	17.2313	3.22424	72.7687	-0.000105646	-1.21333e-05	7014.19
0.157263	1076.03	259.899	1106.97	-13.5789	105.544	0.291729	-0.04157	3893.94	214.647	1	12	0.00943946	8.52727e-06	0	-0.000616556	0.000878113	0.000212095	0.000903365	13.5789	214647	888679	914234	-76.4211	0.0000000E+000	0.0000000E+000	0.0000000E+000	76.4211	0.0000000E+000	0.0000000E+000	0.0000000E+000	-76.4211	0.0000000E+000	0.0000000E+000	0.0000000E+000	-13.5789	0.0000000E+000	0.0000000E+000	0.0000000E+000	13.5789	4.14018	76.4211	-0.000155467	-1.21272e-05	7017.78
0.107379	1146.87	198.627	1163.95	-9.82557	134.518	0.291728	-0.0417126	7462.11	217.305	1	13	0.00943803	8.10865e-06	0	-0.000953196	0.000846544	0.000146613	0.000859146	9.82557	217305	1.25472e+06	1.2734e+06	-80.1744	0.0000000E+000	0.0000000E+000	0.0000000E+000	80.1744	0.0000000E+000	0.0000000E+000	0.0000000E+000	-80.1744	0.0000000E+000	0.0000000E+000	0.0000000E+000	-9.82557	0.0000000E+000	0.0000000E+000	0.0000000E+000	9.82557	5.77402	80.1744	-0.00033664	-1.21687e-05	6993.76
0.0732908	1180.19	145.836	1189.17	-7.0443	163.227	0.291723	-0.0416705	14890.4	223.948	1	13	0.00943816	7.93677e-06	0	-0.00128823	0.000834576	0.000103128	0.000840923	7.0443	223948	1.81233e+06	1.82611e+06	-82.9557	0.0000000E+000	0.0000000E+000	0.0000000E+000	82.9557	0.0000000E+000	0.0000000E+000	0.0000000E+000	-82.9557	0.0000000E+000	0.0000000E+000	0.0000000E+000	-7.0443	0.0000000E+000	0.0000000E+000	0.0000000E+000	7.0443	8.09262	82.9557	-0.000335037	-1.21562e-05	7000.7
0.0500352	1198.6	102.26	1202.96	-4.87645	205.265	0.291727	-0.0416609	31105.6	224.777	1	13	0.00943763	7.84536e-06	0	-0.00177733	0.000828277	7.06654e-05	0.000831285	4.87645	224777	2.63463e+06	2.6442e+06	-85.1235	0.0000000E+000	0.0000000E+000	0.0000000E+000	85.1235	0.0000000E+000	0.0000000E+000	0.0000000E+000	-85.1235	0.0000000E+000	0.0000000E+000	0.0000000E+000	-4.87645	0.0000000E+000	0.0000000E+000	0.0000000E+000	4.87645	11.7211	85.1235	-0.000489095	-1.21536e-05	7002.41