File: Data/Task 3.3 LSV/LSV_EIS_1501rpm_02_PEIS_C01.txt
freq/Hz	Re(Z)/Ohm	-Im(Z)/Ohm	|Z|/Ohm	Phase(Z)/deg	time/s	<Ewe>/V	<I>/mA	Cs/µF	Cp/µF	cycle number	I Range	|Ewe|/V	|I|/A	Ns	(Q-Qo)/mA.h	Re(Y)/Ohm-1	Im(Y)/Ohm-1	|Y|/Ohm-1	Phase(Y)/deg	Re(C)/nF	Im(C)/nF	|C|/nF	Phase(C)/deg	Re(M)	Im(M)	|M|	Phase(M)/deg	Re(Permittivity)	Im(Permittivity)	|Permittivity|	Phase(Permittivity)/deg	Re(Resistivity)/Ohm.cm	Im(Resistivity)/Ohm.cm	|Resistivity|/Ohm.cm	Phase(Resistivity)/deg	Re(Conductivity)/mS/cm	Im(Conductivity)/mS/cm	|Conductivity|/mS/cm	Phase(Conductivity)/deg	Tan(Delta)	Loss Angle(Delta)/deg	dq/mA.h	Pwe/W	Rwe/Ohm
100004	6.74564	2.27285	7.11825	-18.6205	51.6689	0.291664	-0.0576762	0.700218	0.0713884	1	10	0.00907027	0.00127423	0	-2.38551e-05	0.13313	0.0448563	0.140484	18.6205	71.3884	211.875	223.579	-71.3795	0.0000000E+000	0.0000000E+000	0.0000000E+000	71.3795	0.0000000E+000	0.0000000E+000	0.0000000E+000	-71.3795	0.0000000E+000	0.0000000E+000	0.0000000E+000	-18.6205	0.0000000E+000	0.0000000E+000	0.0000000E+000	18.6205	2.96792	71.3795	-2.38551e-05	-1.68221e-05	5056.93
68262	6.8282	3.37857	7.61833	-26.326	52.1059	0.29166	-0.0574491	0.690095	0.135723	1	10	0.0105051	0.00137892	0	-3.17888e-05	0.117648	0.058212	0.131262	26.326	135.723	274.301	306.042	-63.674	0.0000000E+000	0.0000000E+000	0.0000000E+000	63.674	0.0000000E+000	0.0000000E+000	0.0000000E+000	-63.674	0.0000000E+000	0.0000000E+000	0.0000000E+000	-26.326	0.0000000E+000	0.0000000E+000	0.0000000E+000	26.326	2.02103	63.674	-7.93372e-06	-1.67556e-05	5076.84
46596.6	6.96593	4.93178	8.53502	-35.298	52.5439	0.291657	-0.0578363	0.692567	0.231238	1	10	0.0108079	0.0012663	0	-3.77886e-05	0.0956246	0.0677009	0.117164	35.298	231.238	326.614	400.185	-54.702	0.0000000E+000	0.0000000E+000	0.0000000E+000	54.702	0.0000000E+000	0.0000000E+000	0.0000000E+000	-54.702	0.0000000E+000	0.0000000E+000	0.0000000E+000	-35.298	0.0000000E+000	0.0000000E+000	0.0000000E+000	35.298	1.41246	54.702	-5.99979e-06	-1.68684e-05	5042.81
31806.7	7.19243	7.14161	10.1358	-44.7969	52.9809	0.291659	-0.0575645	0.700657	0.347844	1	10	0.0108482	0.00107029	0	-4.51928e-05	0.0700105	0.0695158	0.0986606	44.7969	347.844	350.319	493.679	-45.2031	0.0000000E+000	0.0000000E+000	0.0000000E+000	45.2031	0.0000000E+000	0.0000000E+000	0.0000000E+000	-45.2031	0.0000000E+000	0.0000000E+000	0.0000000E+000	-44.7969	0.0000000E+000	0.0000000E+000	0.0000000E+000	44.7969	1.00712	45.2031	-7.40423e-06	-1.67892e-05	5066.64
21711.7	7.56754	10.3222	12.7991	-53.7537	53.4179	0.291672	-0.0577414	0.710155	0.461895	1	10	0.0106785	0.000834318	0	-5.37075e-05	0.0461954	0.0630111	0.0781307	53.7537	461.895	338.629	572.728	-36.2463	0.0000000E+000	0.0000000E+000	0.0000000E+000	36.2463	0.0000000E+000	0.0000000E+000	0.0000000E+000	-36.2463	0.0000000E+000	0.0000000E+000	0.0000000E+000	-53.7537	0.0000000E+000	0.0000000E+000	0.0000000E+000	53.7537	0.733131	36.2463	-8.51465e-06	-1.68415e-05	5051.35
14817.8	8.19926	14.8485	16.9619	-61.0927	53.8549	0.291671	-0.0574752	0.723361	0.554334	1	10	0.0101889	0.000600694	0	-5.96849e-05	0.0284988	0.0516101	0.0589558	61.0927	554.334	306.101	633.233	-28.9073	0.0000000E+000	0.0000000E+000	0.0000000E+000	28.9073	0.0000000E+000	0.0000000E+000	0.0000000E+000	-28.9073	0.0000000E+000	0.0000000E+000	0.0000000E+000	-61.0927	0.0000000E+000	0.0000000E+000	0.0000000E+000	61.0927	0.552195	28.9073	-5.9774e-06	-1.67639e-05	5074.73
10113.6	9.32979	21.3004	23.254	-66.3461	54.1509	0.291664	-0.0586087	0.738803	0.619877	1	10	0.00952496	0.000409604	0	-6.3897e-05	0.0172534	0.0393904	0.0430033	66.3461	619.877	271.513	676.733	-23.6539	0.0000000E+000	0.0000000E+000	0.0000000E+000	23.6539	0.0000000E+000	0.0000000E+000	0.0000000E+000	-23.6539	0.0000000E+000	0.0000000E+000	0.0000000E+000	-66.3461	0.0000000E+000	0.0000000E+000	0.0000000E+000	66.3461	0.438011	23.6539	-4.2121e-06	-1.7094e-05	4976.46
6904.85	11.2909	30.4339	32.4608	-69.6453	54.6989	0.291664	-0.0524983	0.757371	0.665739	1	10	0.00993467	0.000306051	0	-7.16163e-05	0.0107154	0.0288827	0.0308064	69.6453	665.739	246.987	710.078	-20.3547	0.0000000E+000	0.0000000E+000	0.0000000E+000	20.3547	0.0000000E+000	0.0000000E+000	0.0000000E+000	-20.3547	0.0000000E+000	0.0000000E+000	0.0000000E+000	-69.6453	0.0000000E+000	0.0000000E+000	0.0000000E+000	69.6453	0.370997	20.3547	-7.71932e-06	-1.53119e-05	5555.69
4716.51	14.8185	43.2579	45.7257	-71.0905	55.6471	0.291695	-0.0678671	0.78007	0.698144	1	11	0.0100347	0.000219454	0	-8.77684e-05	0.00708737	0.0206893	0.0218696	71.0905	698.144	239.158	737.971	-18.9095	0.0000000E+000	0.0000000E+000	0.0000000E+000	18.9095	0.0000000E+000	0.0000000E+000	0.0000000E+000	-18.9095	0.0000000E+000	0.0000000E+000	0.0000000E+000	-71.0905	0.0000000E+000	0.0000000E+000	0.0000000E+000	71.0905	0.342562	18.9095	-1.61521e-05	-1.97965e-05	4298.04
3216.91	21.3786	60.9063	64.5494	-70.6586	56.1144	0.291688	-0.0676566	0.812304	0.723201	1	11	0.00907626	0.000140609	0	-9.64128e-05	0.0051309	0.0146177	0.015492	70.6586	723.201	253.849	766.459	-19.3414	0.0000000E+000	0.0000000E+000	0.0000000E+000	19.3414	0.0000000E+000	0.0000000E+000	0.0000000E+000	-19.3414	0.0000000E+000	0.0000000E+000	0.0000000E+000	-70.6586	0.0000000E+000	0.0000000E+000	0.0000000E+000	70.6586	0.351007	19.3414	-8.64444e-06	-1.97346e-05	4311.31
2195.7	33.1903	84.2963	90.5951	-68.5088	56.8061	0.291688	-0.0678233	0.85988	0.744468	1	11	0.00997264	0.000110079	0	-0.000109285	0.00404391	0.0102707	0.0110381	68.5088	744.468	293.122	800.096	-21.4912	0.0000000E+000	0.0000000E+000	0.0000000E+000	21.4912	0.0000000E+000	0.0000000E+000	0.0000000E+000	-21.4912	0.0000000E+000	0.0000000E+000	0.0000000E+000	-68.5088	0.0000000E+000	0.0000000E+000	0.0000000E+000	68.5088	0.393734	21.4912	-1.28717e-05	-1.97833e-05	4300.71
1500.48	53.8976	113.283	125.452	-64.556	57.2721	0.291693	-0.067879	0.936318	0.763492	1	11	0.00975338	7.77462e-05	0	-0.000117987	0.00342466	0.00719804	0.0079712	64.556	763.492	363.252	845.501	-25.444	0.0000000E+000	0.0000000E+000	0.0000000E+000	25.444	0.0000000E+000	0.0000000E+000	0.0000000E+000	-25.444	0.0000000E+000	0.0000000E+000	0.0000000E+000	-64.556	0.0000000E+000	0.0000000E+000	0.0000000E+000	64.556	0.475777	25.444	-8.7027e-06	-1.97999e-05	4297.25
1024.02	88.1899	144.8	169.542	-58.6566	57.7394	0.291699	-0.0677814	1.07336	0.782938	1	11	0.00965039	5.69204e-05	0	-0.000126623	0.00306807	0.00503749	0.00589825	58.6566	782.938	476.846	916.719	-31.3434	0.0000000E+000	0.0000000E+000	0.0000000E+000	31.3434	0.0000000E+000	0.0000000E+000	0.0000000E+000	-31.3434	0.0000000E+000	0.0000000E+000	0.0000000E+000	-58.6566	0.0000000E+000	0.0000000E+000	0.0000000E+000	58.6566	0.609047	31.3434	-8.63606e-06	-1.97718e-05	4303.53
698.436	138.091	171.714	220.351	-51.1941	58.2086	0.291691	-0.0677961	1.32706	0.805877	1	11	0.00959511	4.35447e-05	0	-0.00013527	0.00284403	0.00353651	0.00453822	51.1941	805.877	648.079	1034.14	-38.8059	0.0000000E+000	0.0000000E+000	0.0000000E+000	38.8059	0.0000000E+000	0.0000000E+000	0.0000000E+000	-38.8059	0.0000000E+000	0.0000000E+000	0.0000000E+000	-51.1941	0.0000000E+000	0.0000000E+000	0.0000000E+000	51.1941	0.804191	38.8059	-8.64659e-06	-1.97755e-05	4302.47
476.984	200.087	183.365	271.399	-42.5029	58.6753	0.291688	-0.06789	1.8197	0.830643	1	11	0.00957641	3.52853e-05	0	-0.000143917	0.00271645	0.00248942	0.00368461	42.5029	830.643	906.396	1229.44	-47.4971	0.0000000E+000	0.0000000E+000	0.0000000E+000	47.4971	0.0000000E+000	0.0000000E+000	0.0000000E+000	-47.4971	0.0000000E+000	0.0000000E+000	0.0000000E+000	-42.5029	0.0000000E+000	0.0000000E+000	0.0000000E+000	42.5029	1.0912	47.4971	-8.64723e-06	-1.98027e-05	4296.47
325.521	262.439	177.977	317.096	-34.1438	59.3978	0.291709	-0.0685792	2.74711	0.865414	1	12	0.00965965	3.04628e-05	0	-0.000156851	0.00261003	0.00177004	0.00315362	34.1438	865.414	1276.11	1541.88	-55.8562	0.0000000E+000	0.0000000E+000	0.0000000E+000	55.8562	0.0000000E+000	0.0000000E+000	0.0000000E+000	-55.8562	0.0000000E+000	0.0000000E+000	0.0000000E+000	-34.1438	0.0000000E+000	0.0000000E+000	0.0000000E+000	34.1438	1.47456	55.8562	-1.29334e-05	-2.00052e-05	4253.6
222.348	314.741	157.846	352.104	-26.6343	59.861	0.291708	-0.0686124	4.53474	0.911336	1	12	0.00960722	2.72852e-05	0	-0.000165516	0.0025387	0.00127318	0.00284007	26.6343	911.336	1817.18	2032.9	-63.3657	0.0000000E+000	0.0000000E+000	0.0000000E+000	63.3657	0.0000000E+000	0.0000000E+000	0.0000000E+000	-63.3657	0.0000000E+000	0.0000000E+000	0.0000000E+000	-26.6343	0.0000000E+000	0.0000000E+000	0.0000000E+000	26.6343	1.99397	63.3657	-8.66497e-06	-2.00148e-05	4251.53
151.797	352.275	132.094	376.226	-20.5548	60.3228	0.29171	-0.0686506	7.93728	0.978458	1	12	0.00957682	2.5455e-05	0	-0.000174171	0.00248876	0.000933224	0.00265797	20.5548	978.458	2609.39	2786.81	-69.4452	0.0000000E+000	0.0000000E+000	0.0000000E+000	69.4452	0.0000000E+000	0.0000000E+000	0.0000000E+000	-69.4452	0.0000000E+000	0.0000000E+000	0.0000000E+000	-20.5548	0.0000000E+000	0.0000000E+000	0.0000000E+000	20.5548	2.66684	69.4452	-8.65565e-06	-2.00261e-05	4249.21
103.575	379.386	109.013	394.737	-16.0314	60.7969	0.29171	-0.0685684	14.0958	1.07504	1	12	0.00957274	2.42509e-05	0	-0.000183043	0.00243481	0.000699617	0.00253333	16.0314	1075.04	3741.37	3892.76	-73.9686	0.0000000E+000	0.0000000E+000	0.0000000E+000	73.9686	0.0000000E+000	0.0000000E+000	0.0000000E+000	-73.9686	0.0000000E+000	0.0000000E+000	0.0000000E+000	-16.0314	0.0000000E+000	0.0000000E+000	0.0000000E+000	16.0314	3.48021	73.9686	-8.87211e-06	-2.00021e-05	4254.3
70.7471	397.95	90.8068	408.179	-12.854	61.26	0.291714	-0.0685792	24.7739	1.22611	1	12	0.00956694	2.34381e-05	0	-0.000191735	0.00238851	0.000545027	0.00244991	12.854	1226.11	5373.28	5511.4	-77.1459	0.0000000E+000	0.0000000E+000	0.0000000E+000	77.1459	0.0000000E+000	0.0000000E+000	0.0000000E+000	-77.1459	0.0000000E+000	0.0000000E+000	0.0000000E+000	-12.854	0.0000000E+000	0.0000000E+000	0.0000000E+000	12.854	4.38238	77.1459	-8.69135e-06	-2.00055e-05	4253.67
48.2849	411.601	79.9472	419.293	-10.992	61.7412	0.291708	-0.0684908	41.2292	1.49891	1	12	0.00957018	2.28246e-05	0	-0.000200746	0.00234121	0.000454745	0.00238497	10.992	1498.91	7717.02	7861.24	-79.008	0.0000000E+000	0.0000000E+000	0.0000000E+000	79.008	0.0000000E+000	0.0000000E+000	0.0000000E+000	-79.008	0.0000000E+000	0.0000000E+000	0.0000000E+000	-10.992	0.0000000E+000	0.0000000E+000	0.0000000E+000	10.992	5.1484	79.008	-9.0109e-06	-1.99794e-05	4259.09
32.9443	423.47	73.2315	429.755	-9.81124	62.2346	0.29171	-0.0685331	65.9693	1.91556	1	12	0.00956322	2.22527e-05	0	-0.000210003	0.00229287	0.000396511	0.00232691	9.81124	1915.56	11077	11241.4	-80.1888	0.0000000E+000	0.0000000E+000	0.0000000E+000	80.1888	0.0000000E+000	0.0000000E+000	0.0000000E+000	-80.1888	0.0000000E+000	0.0000000E+000	0.0000000E+000	-9.81124	0.0000000E+000	0.0000000E+000	0.0000000E+000	9.81124	5.78262	80.1888	-9.2575e-06	-1.99918e-05	4256.48
22.482	435.402	71.2842	441.199	-9.298	62.657	0.291706	-0.0685865	99.3097	2.59245	1	12	0.00956443	2.16783e-05	0	-0.000217847	0.00223677	0.000366205	0.00226655	9.298	2592.45	15834.6	16045.4	-80.702	0.0000000E+000	0.0000000E+000	0.0000000E+000	80.702	0.0000000E+000	0.0000000E+000	0.0000000E+000	-80.702	0.0000000E+000	0.0000000E+000	0.0000000E+000	-9.298	0.0000000E+000	0.0000000E+000	0.0000000E+000	9.298	6.10797	80.702	-7.84399e-06	-2.00071e-05	4253.11
15.3588	447.86	74.7007	454.047	-9.46946	63.1155	0.291713	-0.0685692	138.72	3.75479	1	12	0.00956693	2.10704e-05	0	-0.00022642	0.0021724	0.000362345	0.00220241	9.46946	3754.79	22511.5	22822.5	-80.5305	0.0000000E+000	0.0000000E+000	0.0000000E+000	80.5305	0.0000000E+000	0.0000000E+000	0.0000000E+000	-80.5305	0.0000000E+000	0.0000000E+000	0.0000000E+000	-9.46946	0.0000000E+000	0.0000000E+000	0.0000000E+000	9.46946	5.99539	80.5305	-8.57322e-06	-2.00025e-05	4254.28
10.4866	462.141	80.7091	469.136	-9.90632	63.5648	0.291704	-0.0685776	188.046	5.56559	1	12	0.00956911	2.03973e-05	0	-0.00023485	0.0020998	0.000366712	0.00213158	9.90632	5565.6	31868.7	32351	-80.0937	0.0000000E+000	0.0000000E+000	0.0000000E+000	80.0937	0.0000000E+000	0.0000000E+000	0.0000000E+000	-80.0937	0.0000000E+000	0.0000000E+000	0.0000000E+000	-9.90632	0.0000000E+000	0.0000000E+000	0.0000000E+000	9.90632	5.72601	80.0937	-8.42946e-06	-2.00043e-05	4253.63
7.1543	480.677	90.8886	489.195	-10.7073	63.9109	0.291709	-0.0684835	244.762	8.44888	1	12	0.00956554	1.95536e-05	0	-0.000241515	0.00200858	0.000379792	0.00204418	10.7073	8448.87	44683.1	45474.8	-79.2927	0.0000000E+000	0.0000000E+000	0.0000000E+000	79.2927	0.0000000E+000	0.0000000E+000	0.0000000E+000	-79.2927	0.0000000E+000	0.0000000E+000	0.0000000E+000	-10.7073	0.0000000E+000	0.0000000E+000	0.0000000E+000	10.7073	5.28864	79.2927	-6.66559e-06	-1.99772e-05	4259.55
4.88281	504.011	105.073	514.847	-11.7759	64.392	0.291705	-0.0685432	310.214	12.9206	1	12	0.00956872	1.85856e-05	0	-0.000250389	0.00190144	0.000396399	0.00194232	11.7759	12920.6	61977.5	63309.9	-78.2241	0.0000000E+000	0.0000000E+000	0.0000000E+000	78.2241	0.0000000E+000	0.0000000E+000	0.0000000E+000	-78.2241	0.0000000E+000	0.0000000E+000	0.0000000E+000	-11.7759	0.0000000E+000	0.0000000E+000	0.0000000E+000	11.7759	4.79679	78.2241	-8.87341e-06	-1.99944e-05	4255.78
3.33298	531.741	118.059	544.689	-12.5179	65.0672	0.291712	-0.0683834	404.472	19.0015	1	12	0.00956285	1.75565e-05	0	-0.00026278	0.00179227	0.000397925	0.00183591	12.5179	19001.5	85583.5	87667.6	-77.482	0.0000000E+000	0.0000000E+000	0.0000000E+000	77.482	0.0000000E+000	0.0000000E+000	0.0000000E+000	-77.482	0.0000000E+000	0.0000000E+000	0.0000000E+000	-12.5179	0.0000000E+000	0.0000000E+000	0.0000000E+000	12.5179	4.50403	77.482	-1.23913e-05	-1.99483e-05	4265.84
2.27637	572.605	131.725	587.561	-12.9552	66.0306	0.291715	-0.0683432	530.774	26.6771	1	12	0.0095639	1.62773e-05	0	-0.000281059	0.00165863	0.000381559	0.00170195	12.9552	26677.1	115965	118994	-77.0448	0.0000000E+000	0.0000000E+000	0.0000000E+000	77.0448	0.0000000E+000	0.0000000E+000	0.0000000E+000	-77.0448	0.0000000E+000	0.0000000E+000	0.0000000E+000	-12.9552	0.0000000E+000	0.0000000E+000	0.0000000E+000	12.9552	4.34698	77.0448	-1.82791e-05	-1.99368e-05	4268.38
1.55318	618.4	130.272	631.973	-11.896	67.4242	0.291721	-0.0682851	786.585	33.4237	1	12	0.00956446	1.51343e-05	0	-0.000307747	0.00154836	0.000326179	0.00158235	11.896	33423.7	158661	162144	-78.104	0.0000000E+000	0.0000000E+000	0.0000000E+000	78.104	0.0000000E+000	0.0000000E+000	0.0000000E+000	-78.104	0.0000000E+000	0.0000000E+000	0.0000000E+000	-11.896	0.0000000E+000	0.0000000E+000	0.0000000E+000	11.896	4.74697	78.104	-2.66877e-05	-1.99202e-05	4272.11
1.06148	659.821	114.239	669.637	-9.8226	69.4417	0.291716	-0.0683266	1312.48	38.1982	1	12	0.00956372	1.42819e-05	0	-0.000346117	0.00147145	0.000254762	0.00149335	9.8226	38198.2	220625	223907	-80.1774	0.0000000E+000	0.0000000E+000	0.0000000E+000	80.1774	0.0000000E+000	0.0000000E+000	0.0000000E+000	-80.1774	0.0000000E+000	0.0000000E+000	0.0000000E+000	-9.8226	0.0000000E+000	0.0000000E+000	0.0000000E+000	9.8226	5.7758	80.1774	-3.83701e-05	-1.99319e-05	4269.44
0.72338	691.407	91.3572	697.416	-7.52702	72.3843	0.291717	-0.0682963	2408.3	41.325	1	12	0.00956446	1.37141e-05	0	-0.000401538	0.00142151	0.000187827	0.00143386	7.52702	41325	312754	315473	-82.473	0.0000000E+000	0.0000000E+000	0.0000000E+000	82.473	0.0000000E+000	0.0000000E+000	0.0000000E+000	-82.473	0.0000000E+000	0.0000000E+000	0.0000000E+000	-7.52702	0.0000000E+000	0.0000000E+000	0.0000000E+000	7.52702	7.56817	82.473	-5.54206e-05	-1.99232e-05	4271.35
0.494337	709.704	66.2504	712.789	-5.33307	76.6723	0.291717	-0.0682401	4859.69	41.982	1	12	0.00956484	1.34189e-05	0	-0.000481925	0.00139687	0.000130397	0.00140294	5.33307	41982	449730	451685	-84.6669	0.0000000E+000	0.0000000E+000	0.0000000E+000	84.6669	0.0000000E+000	0.0000000E+000	0.0000000E+000	-84.6669	0.0000000E+000	0.0000000E+000	0.0000000E+000	-5.33307	0.0000000E+000	0.0000000E+000	0.0000000E+000	5.33307	10.7124	84.6669	-8.03873e-05	-1.99068e-05	4274.86
0.33724	718.453	46.839	719.979	-3.73007	82.9395	0.29171	-0.0682035	10075.7	42.6432	1	12	0.00956223	1.32813e-05	0	-0.000599338	0.00138599	9.03584e-05	0.00138893	3.73007	42643.2	654095	655483	-86.2699	0.0000000E+000	0.0000000E+000	0.0000000E+000	86.2699	0.0000000E+000	0.0000000E+000	0.0000000E+000	-86.2699	0.0000000E+000	0.0000000E+000	0.0000000E+000	-3.73007	0.0000000E+000	0.0000000E+000	0.0000000E+000	3.73007	15.3388	86.2699	-0.000117413	-1.98956e-05	4277.05
0.230321	722.275	31.9249	722.98	-2.53085	92.0989	0.291705	-0.0681706	21644.9	42.2049	1	12	0.0095634	1.32277e-05	0	-0.000771502	0.00138181	6.10769e-05	0.00138316	2.53085	42204.9	954851	955784	-87.4691	0.0000000E+000	0.0000000E+000	0.0000000E+000	87.4691	0.0000000E+000	0.0000000E+000	0.0000000E+000	-87.4691	0.0000000E+000	0.0000000E+000	0.0000000E+000	-2.53085	0.0000000E+000	0.0000000E+000	0.0000000E+000	2.53085	22.6242	87.4691	-0.000172164	-1.98857e-05	4279.04
0.157263	725.992	22.7923	726.349	-1.79819	105.496	0.291711	-0.06811	44402.5	43.721	1	12	0.00956374	1.31669e-05	0	-0.00102462	0.00137607	4.32013e-05	0.00137675	1.79819	43721	1.39263e+06	1.39331e+06	-88.2018	0.0000000E+000	0.0000000E+000	0.0000000E+000	88.2018	0.0000000E+000	0.0000000E+000	0.0000000E+000	-88.2018	0.0000000E+000	0.0000000E+000	0.0000000E+000	-1.79819	0.0000000E+000	0.0000000E+000	0.0000000E+000	1.79819	31.8526	88.2018	-0.000253117	-1.98685e-05	4282.95
0.107379	727.07	15.0532	727.226	-1.18608	125.101	0.291704	-0.0681041	98462.3	42.188	1	12	0.0095634	1.31505e-05	0	-0.00139727	0.00137479	2.84636e-05	0.00137509	1.18608	42188.1	2.03768e+06	2.03812e+06	-88.8139	0.0000000E+000	0.0000000E+000	0.0000000E+000	88.8139	0.0000000E+000	0.0000000E+000	0.0000000E+000	-88.8139	0.0000000E+000	0.0000000E+000	0.0000000E+000	-1.18608	0.0000000E+000	0.0000000E+000	0.0000000E+000	1.18608	48.3	88.8139	-0.000372652	-1.98663e-05	4283.21
0.0732908	728.215	9.91725	728.282	-0.780239	153.81	0.291702	-0.0680625	218967	40.6034	1	12	0.00956405	1.31323e-05	0	-0.00194464	0.00137297	1.86979e-05	0.00137309	0.780239	40603.6	2.98147e+06	2.98175e+06	-89.2198	0.0000000E+000	0.0000000E+000	0.0000000E+000	89.2198	0.0000000E+000	0.0000000E+000	0.0000000E+000	-89.2198	0.0000000E+000	0.0000000E+000	0.0000000E+000	-0.780239	0.0000000E+000	0.0000000E+000	0.0000000E+000	0.780239	73.4291	89.2198	-0.000547366	-1.9854e-05	4285.81
0.0500352	728.112	6.50807	728.142	-0.512112	195.848	0.291703	-0.0680598	488756	39.045	1	12	0.00956211	1.31322e-05	0	-0.00274587	0.0013733	1.2275e-05	0.00137336	0.512112	39045.2	4.36829e+06	4.36846e+06	-89.4879	0.0000000E+000	0.0000000E+000	0.0000000E+000	89.4879	0.0000000E+000	0.0000000E+000	0.0000000E+000	-89.4879	0.0000000E+000	0.0000000E+000	0.0000000E+000	-0.512112	0.0000000E+000	0.0000000E+000	0.0000000E+000	0.512112	111.878	89.4879	-0.000801229	-1.98533e-05	4285.98