File: Data/Task 3.3 LSV/LSV_EIS_2000 rpm_02_PEIS_C01.txt
freq/Hz	Re(Z)/Ohm	-Im(Z)/Ohm	|Z|/Ohm	Phase(Z)/deg	time/s	<Ewe>/V	<I>/mA	Cs/µF	Cp/µF	cycle number	I Range	|Ewe|/V	|I|/A	Ns	(Q-Qo)/mA.h	Re(Y)/Ohm-1	Im(Y)/Ohm-1	|Y|/Ohm-1	Phase(Y)/deg	Re(C)/nF	Im(C)/nF	|C|/nF	Phase(C)/deg	Re(M)	Im(M)	|M|	Phase(M)/deg	Re(Permittivity)	Im(Permittivity)	|Permittivity|	Phase(Permittivity)/deg	Re(Resistivity)/Ohm.cm	Im(Resistivity)/Ohm.cm	|Resistivity|/Ohm.cm	Phase(Resistivity)/deg	Re(Conductivity)/mS/cm	Im(Conductivity)/mS/cm	|Conductivity|/mS/cm	Phase(Conductivity)/deg	Tan(Delta)	Loss Angle(Delta)/deg	dq/mA.h	Pwe/W	Rwe/Ohm
100004	6.72466	2.28564	7.10248	-18.7723	51.6689	0.29166	-0.0615624	0.6963	0.0721093	1	10	0.00902706	0.00127097	0	-2.40978e-05	0.133306	0.0453093	0.140796	18.7723	72.1094	212.156	224.075	-71.2277	0.0000000E+000	0.0000000E+000	0.0000000E+000	71.2277	0.0000000E+000	0.0000000E+000	0.0000000E+000	-71.2277	0.0000000E+000	0.0000000E+000	0.0000000E+000	-18.7723	0.0000000E+000	0.0000000E+000	0.0000000E+000	18.7723	2.94214	71.2277	-2.40978e-05	-1.79553e-05	4737.63
68262	6.81562	3.40416	7.61846	-26.5405	52.1069	0.291654	-0.0614917	0.684908	0.136746	1	10	0.010518	0.00138059	0	-2.95301e-05	0.117428	0.0586509	0.13126	26.5405	136.746	273.787	306.037	-63.4595	0.0000000E+000	0.0000000E+000	0.0000000E+000	63.4595	0.0000000E+000	0.0000000E+000	0.0000000E+000	-63.4595	0.0000000E+000	0.0000000E+000	0.0000000E+000	-26.5405	0.0000000E+000	0.0000000E+000	0.0000000E+000	26.5405	2.00215	63.4595	-5.43226e-06	-1.79343e-05	4742.98
46596.6	6.95029	4.96657	8.54244	-35.549	52.5439	0.291641	-0.062333	0.687716	0.232465	1	10	0.0107852	0.00126255	0	-3.50687e-05	0.0952443	0.0680601	0.117063	35.549	232.465	325.315	399.838	-54.451	0.0000000E+000	0.0000000E+000	0.0000000E+000	54.451	0.0000000E+000	0.0000000E+000	0.0000000E+000	-54.451	0.0000000E+000	0.0000000E+000	0.0000000E+000	-35.549	0.0000000E+000	0.0000000E+000	0.0000000E+000	35.549	1.39941	54.451	-5.5386e-06	-1.81788e-05	4678.76
31806.7	7.16407	7.1992	10.1564	-45.1401	52.9819	0.291653	-0.062158	0.695051	0.349226	1	10	0.0108959	0.00107281	0	-4.29446e-05	0.0694513	0.0697918	0.0984601	45.1401	349.226	347.522	492.676	-44.8599	0.0000000E+000	0.0000000E+000	0.0000000E+000	44.8599	0.0000000E+000	0.0000000E+000	0.0000000E+000	-44.8599	0.0000000E+000	0.0000000E+000	0.0000000E+000	-45.1401	0.0000000E+000	0.0000000E+000	0.0000000E+000	45.1401	0.995121	44.8599	-7.87597e-06	-1.81286e-05	4692.12
21711.7	7.53161	10.3999	12.8407	-54.088	53.4199	0.29165	-0.0615029	0.704849	0.462359	1	10	0.0107299	0.000835619	0	-4.82457e-05	0.0456783	0.0630744	0.0778774	54.088	462.359	334.839	570.87	-35.912	0.0000000E+000	0.0000000E+000	0.0000000E+000	35.912	0.0000000E+000	0.0000000E+000	0.0000000E+000	-35.912	0.0000000E+000	0.0000000E+000	0.0000000E+000	-54.088	0.0000000E+000	0.0000000E+000	0.0000000E+000	54.088	0.724198	35.912	-5.30103e-06	-1.79373e-05	4742.06
14817.8	8.17598	14.976	17.0624	-61.3681	53.8569	0.291653	-0.0611679	0.717204	0.552524	1	10	0.0101976	0.000597665	0	-5.4837e-05	0.028084	0.0514415	0.0586083	61.3681	552.524	301.645	629.501	-28.6319	0.0000000E+000	0.0000000E+000	0.0000000E+000	28.6319	0.0000000E+000	0.0000000E+000	0.0000000E+000	-28.6319	0.0000000E+000	0.0000000E+000	0.0000000E+000	-61.3681	0.0000000E+000	0.0000000E+000	0.0000000E+000	61.3681	0.54594	28.6319	-6.59136e-06	-1.78398e-05	4768.08
10113.6	9.34013	21.4971	23.4385	-66.5158	54.1529	0.291661	-0.0619049	0.732043	0.615795	1	10	0.00952566	0.000406411	0	-5.97075e-05	0.0170018	0.039131	0.0426649	66.5158	615.795	267.553	671.408	-23.4842	0.0000000E+000	0.0000000E+000	0.0000000E+000	23.4842	0.0000000E+000	0.0000000E+000	0.0000000E+000	-23.4842	0.0000000E+000	0.0000000E+000	0.0000000E+000	-66.5158	0.0000000E+000	0.0000000E+000	0.0000000E+000	66.5158	0.434484	23.4842	-4.87052e-06	-1.80552e-05	4711.43
6904.85	11.2833	30.7288	32.7349	-69.8373	54.7019	0.291654	-0.0560607	0.750102	0.660983	1	10	0.00979793	0.000299312	0	-6.84474e-05	0.0105297	0.0286764	0.0305485	69.8373	660.983	242.706	704.134	-20.1627	0.0000000E+000	0.0000000E+000	0.0000000E+000	20.1627	0.0000000E+000	0.0000000E+000	0.0000000E+000	-20.1627	0.0000000E+000	0.0000000E+000	0.0000000E+000	-69.8373	0.0000000E+000	0.0000000E+000	0.0000000E+000	69.8373	0.36719	20.1627	-8.73989e-06	-1.63503e-05	5202.47
4716.51	14.8967	43.6546	46.1263	-71.1583	55.6501	0.291676	-0.0722015	0.772982	0.69236	1	11	0.0101777	0.000220648	0	-8.54798e-05	0.00700153	0.0205179	0.0216796	71.1583	692.36	236.261	731.562	-18.8417	0.0000000E+000	0.0000000E+000	0.0000000E+000	18.8417	0.0000000E+000	0.0000000E+000	0.0000000E+000	-18.8417	0.0000000E+000	0.0000000E+000	0.0000000E+000	-71.1583	0.0000000E+000	0.0000000E+000	0.0000000E+000	71.1583	0.34124	18.8417	-1.70323e-05	-2.10595e-05	4039.75
3216.91	21.495	61.4828	65.1319	-70.7299	56.1174	0.291673	-0.0721259	0.804688	0.717045	1	11	0.00920921	0.000141393	0	-9.47533e-05	0.00506698	0.0144932	0.0153534	70.7299	717.045	250.686	759.603	-19.2701	0.0000000E+000	0.0000000E+000	0.0000000E+000	19.2701	0.0000000E+000	0.0000000E+000	0.0000000E+000	-19.2701	0.0000000E+000	0.0000000E+000	0.0000000E+000	-70.7299	0.0000000E+000	0.0000000E+000	0.0000000E+000	70.7299	0.34961	19.2701	-9.27349e-06	-2.10371e-05	4043.94
2195.7	33.49	85.1142	91.4659	-68.5218	56.8091	0.291675	-0.0721097	0.851618	0.737447	1	11	0.0098412	0.000107594	0	-0.000108376	0.00400311	0.0101738	0.010933	68.5218	737.447	290.164	792.479	-21.4782	0.0000000E+000	0.0000000E+000	0.0000000E+000	21.4782	0.0000000E+000	0.0000000E+000	0.0000000E+000	-21.4782	0.0000000E+000	0.0000000E+000	0.0000000E+000	-68.5218	0.0000000E+000	0.0000000E+000	0.0000000E+000	68.5218	0.393471	21.4782	-1.36229e-05	-2.10326e-05	4044.89
1500.48	54.4089	114.209	126.507	-64.5271	57.2761	0.291675	-0.0721573	0.928727	0.756937	1	11	0.0096161	7.60121e-05	0	-0.000117542	0.00339968	0.00713625	0.00790467	64.5271	756.937	360.602	838.444	-25.4729	0.0000000E+000	0.0000000E+000	0.0000000E+000	25.4729	0.0000000E+000	0.0000000E+000	0.0000000E+000	-25.4729	0.0000000E+000	0.0000000E+000	0.0000000E+000	-64.5271	0.0000000E+000	0.0000000E+000	0.0000000E+000	64.5271	0.476396	25.4729	-9.16625e-06	-2.10465e-05	4042.21
1024.02	89.1935	145.58	170.731	-58.5051	57.7433	0.291679	-0.072113	1.06761	0.776232	1	11	0.00952219	5.57732e-05	0	-0.000126792	0.00305992	0.00499434	0.00585718	58.5051	776.232	475.58	910.336	-31.4949	0.0000000E+000	0.0000000E+000	0.0000000E+000	31.4949	0.0000000E+000	0.0000000E+000	0.0000000E+000	-31.4949	0.0000000E+000	0.0000000E+000	0.0000000E+000	-58.5051	0.0000000E+000	0.0000000E+000	0.0000000E+000	58.5051	0.612678	31.4949	-9.24931e-06	-2.10338e-05	4044.75
698.436	139.635	172.178	221.683	-50.9582	58.2126	0.291675	-0.0721275	1.32348	0.798376	1	11	0.00947799	4.27547e-05	0	-0.000135989	0.00284139	0.0035036	0.00451095	50.9582	798.376	647.478	1027.93	-39.0418	0.0000000E+000	0.0000000E+000	0.0000000E+000	39.0418	0.0000000E+000	0.0000000E+000	0.0000000E+000	-39.0418	0.0000000E+000	0.0000000E+000	0.0000000E+000	-50.9582	0.0000000E+000	0.0000000E+000	0.0000000E+000	50.9582	0.810993	39.0418	-9.19726e-06	-2.10378e-05	4043.88
476.984	201.701	183.961	272.993	-42.3662	58.6793	0.291672	-0.072254	1.81381	0.823643	1	11	0.00945007	3.46166e-05	0	-0.000145153	0.00270649	0.00246844	0.0036631	42.3662	823.643	903.073	1222.26	-47.6338	0.0000000E+000	0.0000000E+000	0.0000000E+000	47.6338	0.0000000E+000	0.0000000E+000	0.0000000E+000	-47.6338	0.0000000E+000	0.0000000E+000	0.0000000E+000	-42.3662	0.0000000E+000	0.0000000E+000	0.0000000E+000	42.3662	1.09644	47.6338	-9.16419e-06	-2.10745e-05	4036.76
325.521	264.418	176.714	318.032	-33.7554	59.4008	0.291701	-0.0729781	2.76675	0.854221	1	12	0.00952833	2.99603e-05	0	-0.000158859	0.00261425	0.00174714	0.00314433	33.7554	854.221	1278.17	1537.34	-56.2446	0.0000000E+000	0.0000000E+000	0.0000000E+000	56.2446	0.0000000E+000	0.0000000E+000	0.0000000E+000	-56.2446	0.0000000E+000	0.0000000E+000	0.0000000E+000	-33.7554	0.0000000E+000	0.0000000E+000	0.0000000E+000	33.7554	1.4963	56.2446	-1.37053e-05	-2.12878e-05	3997.1
222.348	316.114	156.436	352.705	-26.3295	59.864	0.2917	-0.0728929	4.57561	0.900123	1	12	0.00948183	2.68832e-05	0	-0.000168088	0.0025411	0.00125752	0.00283523	26.3295	900.123	1818.9	2029.44	-63.6705	0.0000000E+000	0.0000000E+000	0.0000000E+000	63.6705	0.0000000E+000	0.0000000E+000	0.0000000E+000	-63.6705	0.0000000E+000	0.0000000E+000	0.0000000E+000	-26.3295	0.0000000E+000	0.0000000E+000	0.0000000E+000	26.3295	2.02072	63.6705	-9.22971e-06	-2.12629e-05	4001.76
151.797	353.139	130.978	376.647	-20.3496	60.3258	0.291696	-0.0728416	8.00494	0.968024	1	12	0.00945858	2.51126e-05	0	-0.000177296	0.00248931	0.000923273	0.00265501	20.3496	968.024	2609.96	2783.7	-69.6504	0.0000000E+000	0.0000000E+000	0.0000000E+000	69.6504	0.0000000E+000	0.0000000E+000	0.0000000E+000	-69.6504	0.0000000E+000	0.0000000E+000	0.0000000E+000	-20.3496	0.0000000E+000	0.0000000E+000	0.0000000E+000	20.3496	2.69618	69.6504	-9.20766e-06	-2.12476e-05	4004.53
103.575	379.05	107.921	394.114	-15.8924	60.7989	0.29169	-0.0729372	14.2384	1.06765	1	12	0.00944933	2.39761e-05	0	-0.000186682	0.00244035	0.000694803	0.00253734	15.8924	1067.65	3749.89	3898.92	-74.1076	0.0000000E+000	0.0000000E+000	0.0000000E+000	74.1076	0.0000000E+000	0.0000000E+000	0.0000000E+000	-74.1076	0.0000000E+000	0.0000000E+000	0.0000000E+000	-15.8924	0.0000000E+000	0.0000000E+000	0.0000000E+000	15.8924	3.5123	74.1076	-9.38629e-06	-2.1275e-05	3999.19
70.7471	397.535	90.0001	407.595	-12.7565	61.262	0.291699	-0.0729107	24.9959	1.2187	1	12	0.00944029	2.31609e-05	0	-0.000195899	0.00239286	0.000541733	0.00245341	12.7565	1218.7	5383.05	5519.28	-77.2435	0.0000000E+000	0.0000000E+000	0.0000000E+000	77.2435	0.0000000E+000	0.0000000E+000	0.0000000E+000	-77.2435	0.0000000E+000	0.0000000E+000	0.0000000E+000	-12.7565	0.0000000E+000	0.0000000E+000	0.0000000E+000	12.7565	4.41705	77.2435	-9.21688e-06	-2.1268e-05	4000.77
48.2849	410.579	78.471	418.011	-10.82	61.7433	0.291701	-0.0728931	42.0048	1.48028	1	12	0.0094377	2.25776e-05	0	-0.000205503	0.00234975	0.000449091	0.00239228	10.82	1480.28	7745.16	7885.35	-79.18	0.0000000E+000	0.0000000E+000	0.0000000E+000	79.18	0.0000000E+000	0.0000000E+000	0.0000000E+000	-79.18	0.0000000E+000	0.0000000E+000	0.0000000E+000	-10.82	0.0000000E+000	0.0000000E+000	0.0000000E+000	10.82	5.23224	79.18	-9.60355e-06	-2.1263e-05	4001.77
32.9443	422.897	72.0619	428.993	-9.67035	62.2366	0.291698	-0.072869	67.0401	1.89167	1	12	0.00944242	2.20107e-05	0	-0.000215313	0.00229792	0.000391567	0.00233104	9.67035	1891.67	11101.3	11261.3	-80.3297	0.0000000E+000	0.0000000E+000	0.0000000E+000	80.3297	0.0000000E+000	0.0000000E+000	0.0000000E+000	-80.3297	0.0000000E+000	0.0000000E+000	0.0000000E+000	-9.67035	0.0000000E+000	0.0000000E+000	0.0000000E+000	9.67035	5.86852	80.3297	-9.81033e-06	-2.12557e-05	4003.05
22.482	434.194	70.4558	439.873	-9.21695	62.658	0.291697	-0.0728912	100.477	2.57779	1	12	0.0094361	2.14519e-05	0	-0.000223722	0.00224403	0.000364135	0.00227338	9.21695	2577.79	15886	16093.8	-80.7831	0.0000000E+000	0.0000000E+000	0.0000000E+000	80.7831	0.0000000E+000	0.0000000E+000	0.0000000E+000	-80.7831	0.0000000E+000	0.0000000E+000	0.0000000E+000	-9.21695	0.0000000E+000	0.0000000E+000	0.0000000E+000	9.21695	6.16264	80.7831	-8.40875e-06	-2.12621e-05	4001.81
15.3588	446.91	73.4077	452.899	-9.32788	63.1165	0.291695	-0.0729371	141.163	3.70853	1	12	0.00943998	2.08435e-05	0	-0.000232854	0.0021788	0.000357881	0.002208	9.32788	3708.53	22577.8	22880.3	-80.6721	0.0000000E+000	0.0000000E+000	0.0000000E+000	80.6721	0.0000000E+000	0.0000000E+000	0.0000000E+000	-80.6721	0.0000000E+000	0.0000000E+000	0.0000000E+000	-9.32788	0.0000000E+000	0.0000000E+000	0.0000000E+000	9.32788	6.08806	80.6721	-9.13234e-06	-2.12754e-05	3999.27
10.4866	461.331	80.7846	468.351	-9.93247	63.5659	0.291694	-0.0728864	187.87	5.58949	1	12	0.00944456	2.01656e-05	0	-0.000241933	0.00210315	0.000368286	0.00213515	9.93247	5589.48	31919.5	32405.2	-80.0675	0.0000000E+000	0.0000000E+000	0.0000000E+000	80.0675	0.0000000E+000	0.0000000E+000	0.0000000E+000	-80.0675	0.0000000E+000	0.0000000E+000	0.0000000E+000	-9.93247	0.0000000E+000	0.0000000E+000	0.0000000E+000	9.93247	5.71063	80.0675	-9.07894e-06	-2.12605e-05	4002.03
7.1543	478.851	90.0127	487.238	-10.646	63.9129	0.291695	-0.0727929	247.143	8.43481	1	12	0.0094385	1.93714e-05	0	-0.000248731	0.00201706	0.00037916	0.00205239	10.646	8434.8	44871.6	45657.5	-79.354	0.0000000E+000	0.0000000E+000	0.0000000E+000	79.354	0.0000000E+000	0.0000000E+000	0.0000000E+000	-79.354	0.0000000E+000	0.0000000E+000	0.0000000E+000	-10.646	0.0000000E+000	0.0000000E+000	0.0000000E+000	10.646	5.31981	79.354	-6.79829e-06	-2.12333e-05	4007.19
4.88281	504.275	102.657	514.618	-11.5067	64.394	0.2917	-0.0728011	317.513	12.6348	1	12	0.0094371	1.83381e-05	0	-0.000258463	0.00190413	0.000387632	0.00194319	11.5067	12634.8	62065.1	63338.2	-78.4933	0.0000000E+000	0.0000000E+000	0.0000000E+000	78.4933	0.0000000E+000	0.0000000E+000	0.0000000E+000	-78.4933	0.0000000E+000	0.0000000E+000	0.0000000E+000	-11.5067	0.0000000E+000	0.0000000E+000	0.0000000E+000	11.5067	4.91222	78.4933	-9.73191e-06	-2.12361e-05	4006.81
3.33298	537.408	112.763	549.111	-11.8503	65.0692	0.291699	-0.0727008	423.47	17.858	1	12	0.00944228	1.71956e-05	0	-0.000271684	0.00178231	0.000373977	0.00182112	11.8503	17858	85108.2	86961.6	-78.1497	0.0000000E+000	0.0000000E+000	0.0000000E+000	78.1497	0.0000000E+000	0.0000000E+000	0.0000000E+000	-78.1497	0.0000000E+000	0.0000000E+000	0.0000000E+000	-11.8503	0.0000000E+000	0.0000000E+000	0.0000000E+000	11.8503	4.76583	78.1497	-1.32211e-05	-2.12067e-05	4012.32
2.27637	576.25	112.953	587.216	-11.0902	66.0326	0.291707	-0.0726734	618.984	22.9023	1	12	0.00944004	1.60759e-05	0	-0.000290705	0.00167115	0.000327569	0.00170295	11.0902	22902.3	116840	119064	-78.9098	0.0000000E+000	0.0000000E+000	0.0000000E+000	78.9098	0.0000000E+000	0.0000000E+000	0.0000000E+000	-78.9098	0.0000000E+000	0.0000000E+000	0.0000000E+000	-11.0902	0.0000000E+000	0.0000000E+000	0.0000000E+000	11.0902	5.10168	78.9098	-1.90203e-05	-2.11993e-05	4013.94
1.55318	615.84	104.346	624.618	-9.61672	67.4263	0.291701	-0.0726809	982.02	27.4061	1	12	0.00943648	1.51076e-05	0	-0.000318747	0.00157848	0.000267454	0.00160098	9.61672	27406.1	161747	164053	-80.3833	0.0000000E+000	0.0000000E+000	0.0000000E+000	80.3833	0.0000000E+000	0.0000000E+000	0.0000000E+000	-80.3833	0.0000000E+000	0.0000000E+000	0.0000000E+000	-9.61672	0.0000000E+000	0.0000000E+000	0.0000000E+000	9.61672	5.90188	80.3833	-2.80421e-05	-2.12011e-05	4013.45
1.06148	644.374	83.5492	649.768	-7.38772	69.4446	0.291701	-0.0726448	1794.59	29.6711	1	12	0.0094389	1.45266e-05	0	-0.000359761	0.00152623	0.000197891	0.00153901	7.38772	29671.1	228839	230754	-82.6123	0.0000000E+000	0.0000000E+000	0.0000000E+000	82.6123	0.0000000E+000	0.0000000E+000	0.0000000E+000	-82.6123	0.0000000E+000	0.0000000E+000	0.0000000E+000	-7.38772	0.0000000E+000	0.0000000E+000	0.0000000E+000	7.38772	7.71251	82.6123	-4.10148e-05	-2.11906e-05	4015.45
0.72338	663.969	62.4033	666.895	-5.36918	72.3873	0.291701	-0.0725795	3525.71	30.8707	1	12	0.00944074	1.41563e-05	0	-0.000419466	0.00149291	0.000140311	0.00149949	5.36918	30870.7	328463	329911	-84.6308	0.0000000E+000	0.0000000E+000	0.0000000E+000	84.6308	0.0000000E+000	0.0000000E+000	0.0000000E+000	-84.6308	0.0000000E+000	0.0000000E+000	0.0000000E+000	-5.36918	0.0000000E+000	0.0000000E+000	0.0000000E+000	5.36918	10.64	84.6308	-5.97045e-05	-2.11715e-05	4019.05
0.494337	673.621	44.8761	675.115	-3.81137	76.6753	0.29171	-0.0725364	7174.34	31.6999	1	12	0.00943725	1.39787e-05	0	-0.000505979	0.00147795	9.84601e-05	0.00148123	3.81137	31699.8	475837	476892	-86.1886	0.0000000E+000	0.0000000E+000	0.0000000E+000	86.1886	0.0000000E+000	0.0000000E+000	0.0000000E+000	-86.1886	0.0000000E+000	0.0000000E+000	0.0000000E+000	-3.81137	0.0000000E+000	0.0000000E+000	0.0000000E+000	3.81137	15.0107	86.1886	-8.65132e-05	-2.11596e-05	4021.57
0.33724	678.512	30.696	679.206	-2.5903	82.9426	0.291702	-0.0725004	15374.5	31.4021	1	12	0.00944171	1.39011e-05	0	-0.000631497	0.0014708	6.65392e-05	0.00147231	2.5903	31402.1	694121	694831	-87.4097	0.0000000E+000	0.0000000E+000	0.0000000E+000	87.4097	0.0000000E+000	0.0000000E+000	0.0000000E+000	-87.4097	0.0000000E+000	0.0000000E+000	0.0000000E+000	-2.5903	0.0000000E+000	0.0000000E+000	0.0000000E+000	2.5903	22.1043	87.4097	-0.000125518	-2.11485e-05	4023.45
0.230321	680.834	21.5108	681.173	-1.80964	92.101	0.291701	-0.0724508	32124	32.0351	1	12	0.00943921	1.38573e-05	0	-0.000814082	0.00146732	4.63597e-05	0.00146806	1.80964	32035.2	1.01394e+06	1.01444e+06	-88.1904	0.0000000E+000	0.0000000E+000	0.0000000E+000	88.1904	0.0000000E+000	0.0000000E+000	0.0000000E+000	-88.1904	0.0000000E+000	0.0000000E+000	0.0000000E+000	-1.80964	0.0000000E+000	0.0000000E+000	0.0000000E+000	1.80964	31.6508	88.1904	-0.000182585	-2.1134e-05	4026.2
0.157263	682.084	14.9784	682.249	-1.258	105.499	0.291701	-0.0724047	67565.9	32.5669	1	12	0.00943746	1.38329e-05	0	-0.00108084	0.00146539	3.21797e-05	0.00146574	1.258	32566.9	1.48302e+06	1.48338e+06	-88.742	0.0000000E+000	0.0000000E+000	0.0000000E+000	88.742	0.0000000E+000	0.0000000E+000	0.0000000E+000	-88.742	0.0000000E+000	0.0000000E+000	0.0000000E+000	-1.258	0.0000000E+000	0.0000000E+000	0.0000000E+000	1.258	45.5377	88.742	-0.000266757	-2.11205e-05	4028.76
0.107379	682.927	10.2772	683.005	-0.862161	125.104	0.291702	-0.0723575	144220	32.6531	1	12	0.00943934	1.38203e-05	0	-0.00147228	0.00146395	2.20306e-05	0.00146412	0.862161	32653.1	2.16983e+06	2.17008e+06	-89.1378	0.0000000E+000	0.0000000E+000	0.0000000E+000	89.1378	0.0000000E+000	0.0000000E+000	0.0000000E+000	-89.1378	0.0000000E+000	0.0000000E+000	0.0000000E+000	-0.862161	0.0000000E+000	0.0000000E+000	0.0000000E+000	0.862161	66.451	89.1378	-0.000391438	-2.11068e-05	4031.4
0.0732908	683.114	6.07803	683.141	-0.509778	153.813	0.291703	-0.0723316	357279	28.2822	1	12	0.00943964	1.3818e-05	0	-0.00204835	0.00146377	1.30239e-05	0.00146383	0.509778	28282.4	3.17866e+06	3.17878e+06	-89.4902	0.0000000E+000	0.0000000E+000	0.0000000E+000	89.4902	0.0000000E+000	0.0000000E+000	0.0000000E+000	-89.4902	0.0000000E+000	0.0000000E+000	0.0000000E+000	-0.509778	0.0000000E+000	0.0000000E+000	0.0000000E+000	0.509778	112.391	89.4902	-0.000576073	-2.10994e-05	4032.86
0.0500352	683.13	4.3231	683.143	-0.362584	195.851	0.291698	-0.0723153	735782	29.4656	1	12	0.00943787	1.38154e-05	0	-0.00289615	0.00146379	9.26342e-06	0.00146382	0.362584	29465.9	4.65612e+06	4.65621e+06	-89.6374	0.0000000E+000	0.0000000E+000	0.0000000E+000	89.6374	0.0000000E+000	0.0000000E+000	0.0000000E+000	-89.6374	0.0000000E+000	0.0000000E+000	0.0000000E+000	-0.362584	0.0000000E+000	0.0000000E+000	0.0000000E+000	0.362584	158.019	89.6374	-0.000847796	-2.10942e-05	4033.69