File: Data/Task 3.3 LSV/LSV_EIS_500rpm_02_PEIS_C01.txt
freq/Hz	Re(Z)/Ohm	-Im(Z)/Ohm	|Z|/Ohm	Phase(Z)/deg	time/s	<Ewe>/V	<I>/mA	Cs/µF	Cp/µF	cycle number	I Range	|Ewe|/V	|I|/A	Ns	(Q-Qo)/mA.h	Re(Y)/Ohm-1	Im(Y)/Ohm-1	|Y|/Ohm-1	Phase(Y)/deg	Re(C)/nF	Im(C)/nF	|C|/nF	Phase(C)/deg	Re(M)	Im(M)	|M|	Phase(M)/deg	Re(Permittivity)	Im(Permittivity)	|Permittivity|	Phase(Permittivity)/deg	Re(Resistivity)/Ohm.cm	Im(Resistivity)/Ohm.cm	|Resistivity|/Ohm.cm	Phase(Resistivity)/deg	Re(Conductivity)/mS/cm	Im(Conductivity)/mS/cm	|Conductivity|/mS/cm	Phase(Conductivity)/deg	Tan(Delta)	Loss Angle(Delta)/deg	dq/mA.h	Pwe/W	Rwe/Ohm
100004	6.79326	2.22362	7.14793	-18.1247	51.6709	0.291679	-0.040391	0.71572	0.0692635	1	10	0.00907987	0.00127028	0	-1.64257e-05	0.132959	0.0435212	0.139901	18.1247	69.2636	211.603	222.651	-71.8753	0.0000000E+000	0.0000000E+000	0.0000000E+000	71.8753	0.0000000E+000	0.0000000E+000	0.0000000E+000	-71.8753	0.0000000E+000	0.0000000E+000	0.0000000E+000	-18.1247	0.0000000E+000	0.0000000E+000	0.0000000E+000	18.1247	3.05504	71.8753	-1.64257e-05	-1.17812e-05	7221.39
68262	6.87232	3.30203	7.62444	-25.6635	52.1079	0.291675	-0.0402812	0.70609	0.132436	1	10	0.0105001	0.00137717	0	-2.32032e-05	0.118219	0.0568022	0.131157	25.6635	132.436	275.631	305.797	-64.3365	0.0000000E+000	0.0000000E+000	0.0000000E+000	64.3365	0.0000000E+000	0.0000000E+000	0.0000000E+000	-64.3365	0.0000000E+000	0.0000000E+000	0.0000000E+000	-25.6635	0.0000000E+000	0.0000000E+000	0.0000000E+000	25.6635	2.08124	64.3365	-6.77748e-06	-1.1749e-05	7240.98
46596.6	7.01207	4.81343	8.50519	-34.4677	52.5449	0.291669	-0.0418893	0.709595	0.227275	1	10	0.0107569	0.00126474	0	-2.61413e-05	0.0969345	0.0665407	0.117575	34.4677	227.275	331.088	401.589	-55.5323	0.0000000E+000	0.0000000E+000	0.0000000E+000	55.5323	0.0000000E+000	0.0000000E+000	0.0000000E+000	-55.5323	0.0000000E+000	0.0000000E+000	0.0000000E+000	-34.4677	0.0000000E+000	0.0000000E+000	0.0000000E+000	34.4677	1.45677	55.5323	-2.93812e-06	-1.22178e-05	6962.85
31806.7	7.22927	6.97259	10.0439	-43.9646	52.9819	0.291677	-0.0414166	0.717641	0.345854	1	10	0.0109441	0.00108963	0	-3.13458e-05	0.0716625	0.0691181	0.0995632	43.9646	345.854	358.586	498.196	-46.0354	0.0000000E+000	0.0000000E+000	0.0000000E+000	46.0354	0.0000000E+000	0.0000000E+000	0.0000000E+000	-46.0354	0.0000000E+000	0.0000000E+000	0.0000000E+000	-43.9646	0.0000000E+000	0.0000000E+000	0.0000000E+000	43.9646	1.03681	46.0354	-5.20449e-06	-1.20802e-05	7042.51
21711.7	7.60248	10.0471	12.5993	-52.8859	53.4189	0.291672	-0.0409382	0.729599	0.463954	1	10	0.0106869	0.00084821	0	-3.63563e-05	0.0478918	0.063292	0.0793694	52.8859	463.954	351.065	581.808	-37.1141	0.0000000E+000	0.0000000E+000	0.0000000E+000	37.1141	0.0000000E+000	0.0000000E+000	0.0000000E+000	-37.1141	0.0000000E+000	0.0000000E+000	0.0000000E+000	-52.8859	0.0000000E+000	0.0000000E+000	0.0000000E+000	52.8859	0.756681	37.1141	-5.01057e-06	-1.19405e-05	7124.69
14817.8	8.23571	14.4317	16.6163	-60.288	53.8569	0.291681	-0.0402291	0.744252	0.561419	1	10	0.010169	0.000611993	0	-4.05842e-05	0.0298287	0.0522697	0.060182	60.288	561.419	320.384	646.403	-29.712	0.0000000E+000	0.0000000E+000	0.0000000E+000	29.712	0.0000000E+000	0.0000000E+000	0.0000000E+000	-29.712	0.0000000E+000	0.0000000E+000	0.0000000E+000	-60.288	0.0000000E+000	0.0000000E+000	0.0000000E+000	60.288	0.570668	29.712	-4.22788e-06	-1.17341e-05	7250.51
10113.6	9.36144	20.6609	22.6828	-65.6248	54.1529	0.291675	-0.0411299	0.761668	0.631934	1	10	0.00954324	0.000420726	0	-4.37041e-05	0.0181948	0.0401565	0.0440862	65.6248	631.934	286.328	693.775	-24.3752	0.0000000E+000	0.0000000E+000	0.0000000E+000	24.3752	0.0000000E+000	0.0000000E+000	0.0000000E+000	-24.3752	0.0000000E+000	0.0000000E+000	0.0000000E+000	-65.6248	0.0000000E+000	0.0000000E+000	0.0000000E+000	65.6248	0.453099	24.3752	-3.11991e-06	-1.19966e-05	7091.56
6904.85	11.3035	29.5671	31.6541	-69.0782	54.5268	0.291673	-0.0356784	0.779574	0.680166	1	10	0.00901058	0.000284658	0	-4.74642e-05	0.0112811	0.0295086	0.0315915	69.0782	680.166	260.027	728.175	-20.9218	0.0000000E+000	0.0000000E+000	0.0000000E+000	20.9218	0.0000000E+000	0.0000000E+000	0.0000000E+000	-20.9218	0.0000000E+000	0.0000000E+000	0.0000000E+000	-69.0782	0.0000000E+000	0.0000000E+000	0.0000000E+000	69.0782	0.382299	20.9218	-3.76005e-06	-1.04064e-05	8175.06
4716.51	14.6829	41.9573	44.4523	-70.7125	55.6981	0.291711	-0.0507919	0.804251	0.716504	1	11	0.010098	0.000227165	0	-6.04947e-05	0.00743062	0.0212334	0.022496	70.7125	716.504	250.74	759.111	-19.2875	0.0000000E+000	0.0000000E+000	0.0000000E+000	19.2875	0.0000000E+000	0.0000000E+000	0.0000000E+000	-19.2875	0.0000000E+000	0.0000000E+000	0.0000000E+000	-70.7125	0.0000000E+000	0.0000000E+000	0.0000000E+000	70.7125	0.349949	19.2875	-1.30305e-05	-1.48165e-05	5743.25
3216.91	20.9103	59.0372	62.6309	-70.4964	56.1653	0.291704	-0.050709	0.838022	0.74461	1	11	0.00910348	0.000145351	0	-6.68618e-05	0.00533069	0.0150504	0.0159666	70.4964	744.61	263.733	789.936	-19.5036	0.0000000E+000	0.0000000E+000	0.0000000E+000	19.5036	0.0000000E+000	0.0000000E+000	0.0000000E+000	-19.5036	0.0000000E+000	0.0000000E+000	0.0000000E+000	-70.4964	0.0000000E+000	0.0000000E+000	0.0000000E+000	70.4964	0.354189	19.5036	-6.36707e-06	-1.4792e-05	5752.52
2195.7	32.0159	81.8102	87.8517	-68.6274	56.8571	0.291691	-0.0507634	0.886011	0.76834	1	11	0.00985252	0.000112149	0	-7.64375e-05	0.00414825	0.0106	0.0113828	68.6274	768.34	300.685	825.081	-21.3726	0.0000000E+000	0.0000000E+000	0.0000000E+000	21.3726	0.0000000E+000	0.0000000E+000	0.0000000E+000	-21.3726	0.0000000E+000	0.0000000E+000	0.0000000E+000	-68.6274	0.0000000E+000	0.0000000E+000	0.0000000E+000	68.6274	0.391343	21.3726	-9.57576e-06	-1.48072e-05	5746.09
1500.48	51.5352	110.065	121.532	-64.9098	57.3231	0.291695	-0.050829	0.9637	0.790413	1	11	0.00963496	7.9279e-05	0	-8.29261e-05	0.00348915	0.00745185	0.00822826	64.9098	790.413	370.092	872.766	-25.0902	0.0000000E+000	0.0000000E+000	0.0000000E+000	25.0902	0.0000000E+000	0.0000000E+000	0.0000000E+000	-25.0902	0.0000000E+000	0.0000000E+000	0.0000000E+000	-64.9098	0.0000000E+000	0.0000000E+000	0.0000000E+000	64.9098	0.468226	25.0902	-6.48862e-06	-1.48266e-05	5738.76
1024.02	84.0869	141.609	164.693	-59.2984	57.7903	0.291697	-0.0508577	1.09754	0.811435	1	11	0.00952308	5.78232e-05	0	-8.94656e-05	0.00310011	0.00522085	0.0060719	59.2984	811.435	481.826	943.707	-30.7016	0.0000000E+000	0.0000000E+000	0.0000000E+000	30.7016	0.0000000E+000	0.0000000E+000	0.0000000E+000	-30.7016	0.0000000E+000	0.0000000E+000	0.0000000E+000	-59.2984	0.0000000E+000	0.0000000E+000	0.0000000E+000	59.2984	0.593795	30.7016	-6.53943e-06	-1.4835e-05	5735.56
698.436	132.285	169.574	215.069	-52.0421	58.2596	0.291691	-0.0509059	1.3438	0.835407	1	11	0.00947694	4.40647e-05	0	-9.59565e-05	0.00285993	0.0036661	0.00464968	52.0421	835.407	651.703	1059.54	-37.9579	0.0000000E+000	0.0000000E+000	0.0000000E+000	37.9579	0.0000000E+000	0.0000000E+000	0.0000000E+000	-37.9579	0.0000000E+000	0.0000000E+000	0.0000000E+000	-52.0421	0.0000000E+000	0.0000000E+000	0.0000000E+000	52.0421	0.780102	37.9579	-6.49097e-06	-1.48488e-05	5730
476.984	192.729	184.151	266.564	-43.6961	58.7263	0.291694	-0.0509374	1.81193	0.864745	1	11	0.00945048	3.5453e-05	0	-0.000102406	0.00271235	0.00259162	0.00375145	43.6961	864.745	905.028	1251.74	-46.3039	0.0000000E+000	0.0000000E+000	0.0000000E+000	46.3039	0.0000000E+000	0.0000000E+000	0.0000000E+000	-46.3039	0.0000000E+000	0.0000000E+000	0.0000000E+000	-43.6961	0.0000000E+000	0.0000000E+000	0.0000000E+000	43.6961	1.04658	46.3039	-6.44987e-06	-1.48581e-05	5726.52
325.521	256.423	180.644	313.664	-35.1639	59.4478	0.291721	-0.0517053	2.70656	0.897712	1	12	0.00953007	3.03831e-05	0	-0.000112088	0.00260632	0.0018361	0.00318813	35.1639	897.712	1274.29	1558.75	-54.8361	0.0000000E+000	0.0000000E+000	0.0000000E+000	54.8361	0.0000000E+000	0.0000000E+000	0.0000000E+000	-54.8361	0.0000000E+000	0.0000000E+000	0.0000000E+000	-35.1639	0.0000000E+000	0.0000000E+000	0.0000000E+000	35.1639	1.41949	54.8361	-9.68165e-06	-1.50835e-05	5641.99
222.348	310.759	162.902	350.868	-27.6639	59.911	0.291716	-0.051761	4.39399	0.947166	1	12	0.00948565	2.70348e-05	0	-0.000118632	0.00252427	0.00132324	0.00285007	27.6639	947.166	1806.85	2040.06	-62.3361	0.0000000E+000	0.0000000E+000	0.0000000E+000	62.3361	0.0000000E+000	0.0000000E+000	0.0000000E+000	-62.3361	0.0000000E+000	0.0000000E+000	0.0000000E+000	-27.6639	0.0000000E+000	0.0000000E+000	0.0000000E+000	27.6639	1.90764	62.3361	-6.54387e-06	-1.50995e-05	5635.82
151.797	351.227	137.736	377.269	-21.4129	60.3748	0.291709	-0.0517525	7.61217	1.01462	1	12	0.00945924	2.50729e-05	0	-0.000125151	0.00246766	0.00096771	0.00265063	21.4129	1014.62	2587.27	2779.1	-68.5871	0.0000000E+000	0.0000000E+000	0.0000000E+000	68.5871	0.0000000E+000	0.0000000E+000	0.0000000E+000	-68.5871	0.0000000E+000	0.0000000E+000	0.0000000E+000	-21.4129	0.0000000E+000	0.0000000E+000	0.0000000E+000	21.4129	2.55	68.5871	-6.51867e-06	-1.50966e-05	5636.61
103.575	380.148	114.14	396.914	-16.7125	60.8489	0.291716	-0.0516828	13.4625	1.1133	1	12	0.0094484	2.38047e-05	0	-0.000131851	0.00241302	0.000724515	0.00251944	16.7125	1113.3	3707.88	3871.41	-73.2875	0.0000000E+000	0.0000000E+000	0.0000000E+000	73.2875	0.0000000E+000	0.0000000E+000	0.0000000E+000	-73.2875	0.0000000E+000	0.0000000E+000	0.0000000E+000	-16.7125	0.0000000E+000	0.0000000E+000	0.0000000E+000	16.7125	3.33053	73.2875	-6.70082e-06	-1.50767e-05	5644.35
70.7471	399.34	95.6986	410.647	-13.4763	61.312	0.291709	-0.0516436	23.5075	1.27668	1	12	0.00944376	2.29973e-05	0	-0.000138402	0.00236813	0.000567504	0.00243518	13.4763	1276.68	5327.43	5478.27	-76.5237	0.0000000E+000	0.0000000E+000	0.0000000E+000	76.5237	0.0000000E+000	0.0000000E+000	0.0000000E+000	-76.5237	0.0000000E+000	0.0000000E+000	0.0000000E+000	-13.4763	0.0000000E+000	0.0000000E+000	0.0000000E+000	13.4763	4.17289	76.5237	-6.55026e-06	-1.50649e-05	5648.51
48.2849	414.787	82.8067	422.972	-11.2899	61.7933	0.291713	-0.0516235	39.8055	1.52564	1	12	0.0094477	2.23365e-05	0	-0.000145184	0.00231847	0.000462853	0.00236422	11.2899	1525.64	7642.07	7792.87	-78.7101	0.0000000E+000	0.0000000E+000	0.0000000E+000	78.7101	0.0000000E+000	0.0000000E+000	0.0000000E+000	-78.7101	0.0000000E+000	0.0000000E+000	0.0000000E+000	-11.2899	0.0000000E+000	0.0000000E+000	0.0000000E+000	11.2899	5.0091	78.7101	-6.78223e-06	-1.50592e-05	5650.77
32.9443	427.587	76.4111	434.361	-10.132	62.2866	0.291715	-0.051603	63.2243	1.95657	1	12	0.00943837	2.17293e-05	0	-0.000152148	0.00226633	0.000405	0.00230223	10.132	1956.57	10948.7	11122.2	-79.868	0.0000000E+000	0.0000000E+000	0.0000000E+000	79.868	0.0000000E+000	0.0000000E+000	0.0000000E+000	-79.868	0.0000000E+000	0.0000000E+000	0.0000000E+000	-10.132	0.0000000E+000	0.0000000E+000	0.0000000E+000	10.132	5.59588	79.868	-6.96408e-06	-1.50534e-05	5653.07
22.482	439.708	73.4412	445.799	-9.48216	62.7071	0.291709	-0.0516699	96.3929	2.61605	1	12	0.00944099	2.11777e-05	0	-0.000158038	0.00221251	0.00036954	0.00224316	9.48216	2616.05	15662.8	15879.8	-80.5178	0.0000000E+000	0.0000000E+000	0.0000000E+000	80.5178	0.0000000E+000	0.0000000E+000	0.0000000E+000	-80.5178	0.0000000E+000	0.0000000E+000	0.0000000E+000	-9.48216	0.0000000E+000	0.0000000E+000	0.0000000E+000	9.48216	5.98721	80.5178	-5.89023e-06	-1.50726e-05	5645.63
15.3588	452.033	76.5918	458.476	-9.61677	63.1655	0.291706	-0.051543	135.295	3.77583	1	12	0.00944198	2.05943e-05	0	-0.000164478	0.00215049	0.000364375	0.00218114	9.61677	3775.83	22284.4	22602	-80.3832	0.0000000E+000	0.0000000E+000	0.0000000E+000	80.3832	0.0000000E+000	0.0000000E+000	0.0000000E+000	-80.3832	0.0000000E+000	0.0000000E+000	0.0000000E+000	-9.61677	0.0000000E+000	0.0000000E+000	0.0000000E+000	9.61677	5.90185	80.3832	-6.43999e-06	-1.50354e-05	5659.47
10.4866	466.715	82.999	474.037	-10.0839	63.6149	0.291711	-0.0515665	182.858	5.60575	1	12	0.00943984	1.99137e-05	0	-0.000170764	0.00207695	0.000369358	0.00210954	10.0839	5605.75	31521.9	32016.5	-79.9161	0.0000000E+000	0.0000000E+000	0.0000000E+000	79.9161	0.0000000E+000	0.0000000E+000	0.0000000E+000	-79.9161	0.0000000E+000	0.0000000E+000	0.0000000E+000	-10.0839	0.0000000E+000	0.0000000E+000	0.0000000E+000	10.0839	5.62314	79.9161	-6.28542e-06	-1.50425e-05	5656.98
7.1543	483.833	93.5823	492.8	-10.9469	63.9609	0.291717	-0.0514903	237.716	8.57245	1	12	0.00943804	1.91519e-05	0	-0.000175849	0.0019923	0.000385347	0.00202922	10.9469	8572.45	44320.7	45142.1	-79.0531	0.0000000E+000	0.0000000E+000	0.0000000E+000	79.0531	0.0000000E+000	0.0000000E+000	0.0000000E+000	-79.0531	0.0000000E+000	0.0000000E+000	0.0000000E+000	-10.9469	0.0000000E+000	0.0000000E+000	0.0000000E+000	10.9469	5.17013	79.0531	-5.08532e-06	-1.50206e-05	5665.48
4.88281	504.663	107.454	515.976	-12.0201	64.4419	0.29171	-0.0516067	303.338	13.1557	1	12	0.00944348	1.83022e-05	0	-0.000182429	0.00189558	0.000403613	0.00193808	12.0201	13155.7	61786.4	63171.4	-77.9799	0.0000000E+000	0.0000000E+000	0.0000000E+000	77.9799	0.0000000E+000	0.0000000E+000	0.0000000E+000	-77.9799	0.0000000E+000	0.0000000E+000	0.0000000E+000	-12.0201	0.0000000E+000	0.0000000E+000	0.0000000E+000	12.0201	4.69654	77.9799	-6.58011e-06	-1.50542e-05	5652.57
3.33298	526.4	123.657	540.729	-13.2197	65.1172	0.291719	-0.0514502	386.163	20.1951	1	12	0.00943993	1.74578e-05	0	-0.000191762	0.00180035	0.00042292	0.00184935	13.2197	20195.1	85969.5	88309.6	-76.7803	0.0000000E+000	0.0000000E+000	0.0000000E+000	76.7803	0.0000000E+000	0.0000000E+000	0.0000000E+000	-76.7803	0.0000000E+000	0.0000000E+000	0.0000000E+000	-13.2197	0.0000000E+000	0.0000000E+000	0.0000000E+000	13.2197	4.25695	76.7803	-9.33291e-06	-1.5009e-05	5669.92
2.27637	555.425	150.499	575.454	-15.1609	66.0816	0.291722	-0.051436	464.563	31.7753	1	12	0.00944068	1.64056e-05	0	-0.00020566	0.00167728	0.000454477	0.00173776	15.1609	31775.3	117269	121497	-74.8391	0.0000000E+000	0.0000000E+000	0.0000000E+000	74.8391	0.0000000E+000	0.0000000E+000	0.0000000E+000	-74.8391	0.0000000E+000	0.0000000E+000	0.0000000E+000	-15.1609	0.0000000E+000	0.0000000E+000	0.0000000E+000	15.1609	3.69056	74.8391	-1.38977e-05	-1.5005e-05	5671.54
1.55318	593.845	173.868	618.775	-16.3192	67.4753	0.29172	-0.0514955	589.356	46.5322	1	12	0.00944073	1.52571e-05	0	-0.000225838	0.00155099	0.000454104	0.0016161	16.3192	46532.2	158930	165602	-73.6808	0.0000000E+000	0.0000000E+000	0.0000000E+000	73.6808	0.0000000E+000	0.0000000E+000	0.0000000E+000	-73.6808	0.0000000E+000	0.0000000E+000	0.0000000E+000	-16.3192	0.0000000E+000	0.0000000E+000	0.0000000E+000	16.3192	3.41549	73.6808	-2.01785e-05	-1.50223e-05	5664.96
1.06148	648.898	204.44	680.341	-17.4874	69.4946	0.291724	-0.0513566	733.402	66.2247	1	12	0.0094387	1.38735e-05	0	-0.000254538	0.00140192	0.000441684	0.00146985	17.4874	66224.7	210199	220384	-72.5126	0.0000000E+000	0.0000000E+000	0.0000000E+000	72.5126	0.0000000E+000	0.0000000E+000	0.0000000E+000	-72.5126	0.0000000E+000	0.0000000E+000	0.0000000E+000	-17.4874	0.0000000E+000	0.0000000E+000	0.0000000E+000	17.4874	3.17403	72.5126	-2.87003e-05	-1.4982e-05	5680.37
0.72338	719.293	223.428	753.195	-17.2559	72.4362	0.29172	-0.0513491	984.73	86.6514	1	12	0.00943775	1.25303e-05	0	-0.000295926	0.00126792	0.000393842	0.00132768	17.2559	86651.4	278962	292110	-72.7441	0.0000000E+000	0.0000000E+000	0.0000000E+000	72.7441	0.0000000E+000	0.0000000E+000	0.0000000E+000	-72.7441	0.0000000E+000	0.0000000E+000	0.0000000E+000	-17.2559	0.0000000E+000	0.0000000E+000	0.0000000E+000	17.2559	3.21936	72.7441	-4.13875e-05	-1.49795e-05	5681.1
0.494337	798.108	221.767	828.346	-15.5288	76.7243	0.291727	-0.0513179	1451.78	104.057	1	12	0.00943794	1.13937e-05	0	-0.000356191	0.00116316	0.000323201	0.00120723	15.5288	104057	374486	388674	-74.4712	0.0000000E+000	0.0000000E+000	0.0000000E+000	74.4712	0.0000000E+000	0.0000000E+000	0.0000000E+000	-74.4712	0.0000000E+000	0.0000000E+000	0.0000000E+000	-15.5288	0.0000000E+000	0.0000000E+000	0.0000000E+000	15.5288	3.59886	74.4712	-6.02648e-05	-1.49708e-05	5684.69
0.33724	867.633	191.751	888.569	-12.4623	82.9915	0.291726	-0.0512731	2461.18	114.613	1	12	0.00943613	1.06195e-05	0	-0.000444604	0.00109889	0.000242859	0.00112541	12.4623	114614	518603	531117	-77.5377	0.0000000E+000	0.0000000E+000	0.0000000E+000	77.5377	0.0000000E+000	0.0000000E+000	0.0000000E+000	-77.5377	0.0000000E+000	0.0000000E+000	0.0000000E+000	-12.4623	0.0000000E+000	0.0000000E+000	0.0000000E+000	12.4623	4.5248	77.5377	-8.84132e-05	-1.49577e-05	5689.65
0.230321	924.638	147.12	936.269	-9.0406	92.1509	0.291723	-0.0513046	4696.93	115.973	1	12	0.00944038	1.0083e-05	0	-0.000574741	0.0010548	0.00016783	0.00106807	9.0406	115973	728880	738049	-80.9594	0.0000000E+000	0.0000000E+000	0.0000000E+000	80.9594	0.0000000E+000	0.0000000E+000	0.0000000E+000	-80.9594	0.0000000E+000	0.0000000E+000	0.0000000E+000	-9.0406	0.0000000E+000	0.0000000E+000	0.0000000E+000	9.0406	6.28492	80.9594	-0.000130137	-1.49667e-05	5686.1
0.157263	949.486	110.036	955.841	-6.61055	105.548	0.291723	-0.0512496	9197.25	121.888	1	12	0.00943659	9.87255e-06	0	-0.00076606	0.00103924	0.000120438	0.0010462	6.61055	121888	1.05175e+06	1.05879e+06	-83.3894	0.0000000E+000	0.0000000E+000	0.0000000E+000	83.3894	0.0000000E+000	0.0000000E+000	0.0000000E+000	-83.3894	0.0000000E+000	0.0000000E+000	0.0000000E+000	-6.61055	0.0000000E+000	0.0000000E+000	0.0000000E+000	6.61055	8.62883	83.3894	-0.000191319	-1.49507e-05	5692.2
0.107379	964.171	76.4979	967.201	-4.53638	125.153	0.291718	-0.0512361	19375.3	121.203	1	12	0.0094395	9.75961e-06	0	-0.00104715	0.00103067	8.17741e-05	0.00103391	4.53638	121203	1.52763e+06	1.53243e+06	-85.4636	0.0000000E+000	0.0000000E+000	0.0000000E+000	85.4636	0.0000000E+000	0.0000000E+000	0.0000000E+000	-85.4636	0.0000000E+000	0.0000000E+000	0.0000000E+000	-4.53638	0.0000000E+000	0.0000000E+000	0.0000000E+000	4.53638	12.6039	85.4636	-0.000281091	-1.49465e-05	5693.61
0.0732908	970.082	53.0721	971.532	-3.13147	153.862	0.29172	-0.0512484	40917.1	122.102	1	12	0.00943937	9.71596e-06	0	-0.0014591	0.00102776	5.62279e-05	0.0010293	3.13147	122102	2.23185e+06	2.23519e+06	-86.8685	0.0000000E+000	0.0000000E+000	0.0000000E+000	86.8685	0.0000000E+000	0.0000000E+000	0.0000000E+000	-86.8685	0.0000000E+000	0.0000000E+000	0.0000000E+000	-3.13147	0.0000000E+000	0.0000000E+000	0.0000000E+000	3.13147	18.2786	86.8685	-0.000411952	-1.49502e-05	5692.28
0.0500352	974.205	37.8472	974.94	-2.22478	195.9	0.291724	-0.0512435	84044.8	126.655	1	12	0.00943641	9.67896e-06	0	-0.00206095	0.00102493	3.98178e-05	0.0010257	2.22478	126655	3.26016e+06	3.26262e+06	-87.7752	0.0000000E+000	0.0000000E+000	0.0000000E+000	87.7752	0.0000000E+000	0.0000000E+000	0.0000000E+000	-87.7752	0.0000000E+000	0.0000000E+000	0.0000000E+000	-2.22478	0.0000000E+000	0.0000000E+000	0.0000000E+000	2.22478	25.7405	87.7752	-0.000601849	-1.49489e-05	5692.89