File: Data/Task 3.2 EIS/EIS_0_C01.txt
freq/Hz	Re(Z)/Ohm	-Im(Z)/Ohm	|Z|/Ohm	Phase(Z)/deg	time/s	<Ewe>/V	<I>/mA	Cs/µF	Cp/µF	cycle number	I Range	|Ewe|/V	|I|/A	Ns	(Q-Qo)/mA.h	Re(Y)/Ohm-1	Im(Y)/Ohm-1	|Y|/Ohm-1	Phase(Y)/deg	Re(C)/nF	Im(C)/nF	|C|/nF	Phase(C)/deg	Re(M)	Im(M)	|M|	Phase(M)/deg	Re(Permittivity)	Im(Permittivity)	|Permittivity|	Phase(Permittivity)/deg	Re(Resistivity)/Ohm.cm	Im(Resistivity)/Ohm.cm	|Resistivity|/Ohm.cm	Phase(Resistivity)/deg	Re(Conductivity)/mS/cm	Im(Conductivity)/mS/cm	|Conductivity|/mS/cm	Phase(Conductivity)/deg	Tan(Delta)	Loss Angle(Delta)/deg	dq/mA.h	Pwe/W	Rwe/Ohm
100004	7.28163	2.73035	7.77669	-20.5542	31.6345	0.291647	0.005678	0.58289	0.0718508	1	10	0.00911366	0.00117192	0	-5.6135e-05	0.120403	0.0451469	0.128589	20.5542	71.8508	191.621	204.649	-69.4458	0.0000000E+000	0.0000000E+000	0.0000000E+000	69.4458	0.0000000E+000	0.0000000E+000	0.0000000E+000	-69.4458	0.0000000E+000	0.0000000E+000	0.0000000E+000	-20.5542	0.0000000E+000	0.0000000E+000	0.0000000E+000	20.5542	2.66693	69.4458	-5.6135e-05	1.65597e-06	51364.5
68289.8	7.38232	4.01759	8.40473	-28.5558	32.0715	0.291642	0.00570592	0.580095	0.132551	1	10	0.0105118	0.0012507	0	-5.5564e-05	0.104507	0.0568744	0.118981	28.5558	132.551	243.562	277.294	-61.4442	0.0000000E+000	0.0000000E+000	0.0000000E+000	61.4442	0.0000000E+000	0.0000000E+000	0.0000000E+000	-61.4442	0.0000000E+000	0.0000000E+000	0.0000000E+000	-28.5558	0.0000000E+000	0.0000000E+000	0.0000000E+000	28.5558	1.8375	61.4442	5.71013e-07	1.66409e-06	51112.1
46633.8	7.53716	5.82241	9.52414	-37.6859	32.5085	0.291647	0.00594043	0.586161	0.219064	1	10	0.0108134	0.00113537	0	-5.45982e-05	0.0830914	0.0641876	0.104996	37.6859	219.064	283.58	358.339	-52.3141	0.0000000E+000	0.0000000E+000	0.0000000E+000	52.3141	0.0000000E+000	0.0000000E+000	0.0000000E+000	-52.3141	0.0000000E+000	0.0000000E+000	0.0000000E+000	-37.6859	0.0000000E+000	0.0000000E+000	0.0000000E+000	37.6859	1.29451	52.3141	9.65794e-07	1.73251e-06	49095.2
31843.8	7.77458	8.41859	11.4593	-47.2775	32.9455	0.291646	0.00552352	0.593684	0.320416	1	10	0.0109211	0.000953034	0	-5.22639e-05	0.0592048	0.0641091	0.087265	47.2775	320.416	295.905	436.149	-42.7225	0.0000000E+000	0.0000000E+000	0.0000000E+000	42.7225	0.0000000E+000	0.0000000E+000	0.0000000E+000	-42.7225	0.0000000E+000	0.0000000E+000	0.0000000E+000	-47.2775	0.0000000E+000	0.0000000E+000	0.0000000E+000	47.2775	0.923501	42.7225	2.33434e-06	1.61091e-06	52800.8
21748.8	8.17796	12.1326	14.6314	-56.0181	33.3835	0.291641	0.0051401	0.603159	0.41473	1	10	0.0105921	0.000723929	0	-5.11569e-05	0.0382008	0.0566735	0.0683461	56.0181	414.73	279.548	500.148	-33.9819	0.0000000E+000	0.0000000E+000	0.0000000E+000	33.9819	0.0000000E+000	0.0000000E+000	0.0000000E+000	-33.9819	0.0000000E+000	0.0000000E+000	0.0000000E+000	-56.0181	0.0000000E+000	0.0000000E+000	0.0000000E+000	56.0181	0.67405	33.9819	1.10695e-06	1.49906e-06	56738.4
14845.6	8.83924	17.453	19.5638	-63.1397	33.6795	0.291642	0.00497072	0.614259	0.488865	1	10	0.0109401	0.000559205	0	-5.10435e-05	0.0230946	0.0456002	0.0511149	63.1397	488.865	247.59	547.987	-26.8603	0.0000000E+000	0.0000000E+000	0.0000000E+000	26.8603	0.0000000E+000	0.0000000E+000	0.0000000E+000	-26.8603	0.0000000E+000	0.0000000E+000	0.0000000E+000	-63.1397	0.0000000E+000	0.0000000E+000	0.0000000E+000	63.1397	0.506459	26.8604	1.13371e-07	1.44967e-06	58672.1
10141.4	9.96316	24.9802	26.8937	-68.2558	33.9755	0.291644	0.00508611	0.628242	0.542019	1	10	0.0102257	0.000380225	0	-5.08651e-05	0.0137751	0.0345377	0.0371834	68.2558	542.019	216.181	583.54	-21.7442	0.0000000E+000	0.0000000E+000	0.0000000E+000	21.7442	0.0000000E+000	0.0000000E+000	0.0000000E+000	-21.7442	0.0000000E+000	0.0000000E+000	0.0000000E+000	-68.2558	0.0000000E+000	0.0000000E+000	0.0000000E+000	68.2558	0.398843	21.7442	1.78411e-07	1.48333e-06	57341.3
6921.96	11.7771	35.7935	37.6812	-71.7873	34.3479	0.291653	0.0114775	0.642373	0.579623	1	10	0.00971177	0.000257735	0	-4.96569e-05	0.00829448	0.0252089	0.0265384	71.7873	579.623	190.713	610.192	-18.2127	0.0000000E+000	0.0000000E+000	0.0000000E+000	18.2127	0.0000000E+000	0.0000000E+000	0.0000000E+000	-18.2127	0.0000000E+000	0.0000000E+000	0.0000000E+000	-71.7873	0.0000000E+000	0.0000000E+000	0.0000000E+000	71.7873	0.329029	18.2127	1.20818e-06	3.34746e-06	25410.8
4726.51	15.1676	51.0149	53.222	-73.4419	35.0737	0.291671	-0.00333644	0.660058	0.606449	1	11	0.0108282	0.000203454	0	-4.91642e-05	0.0053547	0.01801	0.0187892	73.4419	606.449	180.308	632.686	-16.5581	0.0000000E+000	0.0000000E+000	0.0000000E+000	16.5581	0.0000000E+000	0.0000000E+000	0.0000000E+000	-16.5581	0.0000000E+000	0.0000000E+000	0.0000000E+000	-73.4419	0.0000000E+000	0.0000000E+000	0.0000000E+000	73.4419	0.297318	16.5581	4.92701e-07	-9.73141e-07	87419.9
3231.03	21.2137	72.2354	75.2859	-73.6338	35.5397	0.291664	-0.00331632	0.681912	0.62777	1	11	0.00992695	0.000131857	0	-4.94639e-05	0.00374274	0.0127445	0.0132827	73.6338	627.77	184.361	654.282	-16.3662	0.0000000E+000	0.0000000E+000	0.0000000E+000	16.3662	0.0000000E+000	0.0000000E+000	0.0000000E+000	-16.3662	0.0000000E+000	0.0000000E+000	0.0000000E+000	-73.6338	0.0000000E+000	0.0000000E+000	0.0000000E+000	73.6338	0.293675	16.3662	-2.99614e-07	-9.6725e-07	87948.1
2205.71	32.1256	101.255	106.229	-72.397	36.0067	0.291666	-0.00326788	0.71262	0.647445	1	11	0.00952264	8.96428e-05	0	-4.98036e-05	0.00284687	0.00897285	0.00941365	72.397	647.445	205.419	679.251	-17.603	0.0000000E+000	0.0000000E+000	0.0000000E+000	17.603	0.0000000E+000	0.0000000E+000	0.0000000E+000	-17.603	0.0000000E+000	0.0000000E+000	0.0000000E+000	-72.397	0.0000000E+000	0.0000000E+000	0.0000000E+000	72.397	0.317276	17.603	-3.3974e-07	-9.5313e-07	89252.5
1505.48	51.8088	139.791	149.082	-69.6644	36.4737	0.291663	-0.00321553	0.756253	0.664921	1	11	0.00934847	6.27068e-05	0	-5.01967e-05	0.00233105	0.00628964	0.0067077	69.6644	664.921	246.431	709.118	-20.3356	0.0000000E+000	0.0000000E+000	0.0000000E+000	20.3356	0.0000000E+000	0.0000000E+000	0.0000000E+000	-20.3356	0.0000000E+000	0.0000000E+000	0.0000000E+000	-69.6644	0.0000000E+000	0.0000000E+000	0.0000000E+000	69.6644	0.370617	20.3356	-3.93109e-07	-9.37851e-07	90704.6
1027.7	85.5527	187.067	205.702	-65.4236	36.9412	0.291666	-0.00324515	0.827862	0.68466	1	11	0.00926223	4.50274e-05	0	-5.06128e-05	0.00202189	0.004421	0.0048614	65.4236	684.66	313.121	752.864	-24.5764	0.0000000E+000	0.0000000E+000	0.0000000E+000	24.5764	0.0000000E+000	0.0000000E+000	0.0000000E+000	-24.5764	0.0000000E+000	0.0000000E+000	0.0000000E+000	-65.4236	0.0000000E+000	0.0000000E+000	0.0000000E+000	65.4236	0.457338	24.5764	-4.16066e-07	-9.46498e-07	89877.4
702.022	140.824	238.411	276.896	-59.4305	37.4082	0.291665	-0.00322428	0.950919	0.704958	1	11	0.00921847	3.32922e-05	0	-5.10083e-05	0.00183673	0.00310952	0.00361147	59.4305	704.958	416.404	818.754	-30.5694	0.0000000E+000	0.0000000E+000	0.0000000E+000	30.5694	0.0000000E+000	0.0000000E+000	0.0000000E+000	-30.5694	0.0000000E+000	0.0000000E+000	0.0000000E+000	-59.4305	0.0000000E+000	0.0000000E+000	0.0000000E+000	59.4305	0.590679	30.5695	-3.95525e-07	-9.4041e-07	90458.8
479.54	222.402	285.1	361.586	-52.0427	38.131	0.291676	-0.00410222	1.16412	0.723716	1	12	0.00933783	2.58246e-05	0	-5.17134e-05	0.00170104	0.00218058	0.00276559	52.0427	723.716	564.56	917.875	-37.9573	0.0000000E+000	0.0000000E+000	0.0000000E+000	37.9573	0.0000000E+000	0.0000000E+000	0.0000000E+000	-37.9573	0.0000000E+000	0.0000000E+000	0.0000000E+000	-52.0427	0.0000000E+000	0.0000000E+000	0.0000000E+000	52.0427	0.780085	37.9573	-7.05057e-07	-1.19652e-06	71102
327.621	324.368	307.385	446.878	-43.4601	38.5962	0.291681	-0.00410104	1.5804	0.747744	1	12	0.00925221	2.07041e-05	0	-5.22273e-05	0.00162428	0.00153923	0.00223775	43.4601	747.744	789.057	1087.08	-46.5399	0.0000000E+000	0.0000000E+000	0.0000000E+000	46.5399	0.0000000E+000	0.0000000E+000	0.0000000E+000	-46.5399	0.0000000E+000	0.0000000E+000	0.0000000E+000	-43.4601	0.0000000E+000	0.0000000E+000	0.0000000E+000	43.4601	1.05525	46.5399	-5.13923e-07	-1.1962e-06	71123.6
223.64	431.276	299.591	525.123	-34.7863	39.067	0.291684	-0.00412039	2.37542	0.773175	1	12	0.00921883	1.75556e-05	0	-5.27598e-05	0.00156399	0.00108645	0.00190432	34.7863	773.175	1113.02	1355.22	-55.2137	0.0000000E+000	0.0000000E+000	0.0000000E+000	55.2137	0.0000000E+000	0.0000000E+000	0.0000000E+000	-55.2137	0.0000000E+000	0.0000000E+000	0.0000000E+000	-34.7863	0.0000000E+000	0.0000000E+000	0.0000000E+000	34.7863	1.43955	55.2137	-5.32477e-07	-1.20185e-06	70790.4
152.703	518.807	266.842	583.408	-27.2185	39.5418	0.29169	-0.00408401	3.90586	0.817111	1	12	0.00919673	1.57638e-05	0	-5.33037e-05	0.00152426	0.000783988	0.00171407	27.2185	817.111	1588.66	1786.48	-62.7815	0.0000000E+000	0.0000000E+000	0.0000000E+000	62.7815	0.0000000E+000	0.0000000E+000	0.0000000E+000	-62.7815	0.0000000E+000	0.0000000E+000	0.0000000E+000	-27.2185	0.0000000E+000	0.0000000E+000	0.0000000E+000	27.2185	1.94425	62.7815	-5.43973e-07	-1.19126e-06	71422.4
104.233	586.58	224.793	628.178	-20.9681	40.0112	0.291687	-0.00411088	6.79256	0.869826	1	12	0.00918463	1.46211e-05	0	-5.38162e-05	0.00148649	0.000569662	0.00159191	20.9681	869.826	2269.75	2430.71	-69.0319	0.0000000E+000	0.0000000E+000	0.0000000E+000	69.0319	0.0000000E+000	0.0000000E+000	0.0000000E+000	-69.0319	0.0000000E+000	0.0000000E+000	0.0000000E+000	-20.9681	0.0000000E+000	0.0000000E+000	0.0000000E+000	20.9681	2.60942	69.0319	-5.12451e-07	-1.19909e-06	70954.8
71.2077	631.887	183.338	657.947	-16.1798	40.4724	0.291692	-0.00404985	12.191	0.946596	1	12	0.00918261	1.39565e-05	0	-5.43348e-05	0.00145968	0.000423517	0.00151988	16.1798	946.596	3262.5	3397.05	-73.8202	0.0000000E+000	0.0000000E+000	0.0000000E+000	73.8202	0.0000000E+000	0.0000000E+000	0.0000000E+000	-73.8202	0.0000000E+000	0.0000000E+000	0.0000000E+000	-16.1798	0.0000000E+000	0.0000000E+000	0.0000000E+000	16.1798	3.44657	73.8202	-5.18652e-07	-1.18131e-06	72025.4
48.6457	665.185	150.08	681.905	-12.7143	40.9523	0.291697	-0.00401805	21.7998	1.05597	1	12	0.00917866	1.34603e-05	0	-5.48586e-05	0.00143052	0.000322757	0.00146648	12.7143	1055.97	4680.26	4797.9	-77.2857	0.0000000E+000	0.0000000E+000	0.0000000E+000	77.2857	0.0000000E+000	0.0000000E+000	0.0000000E+000	-77.2857	0.0000000E+000	0.0000000E+000	0.0000000E+000	-12.7143	0.0000000E+000	0.0000000E+000	0.0000000E+000	12.7143	4.43219	77.2857	-5.23795e-07	-1.17205e-06	72596.6
33.2245	688.571	127.639	700.301	-10.5016	41.4424	0.29169	-0.0040343	37.53	1.24674	1	12	0.0091834	1.31135e-05	0	-5.54068e-05	0.00140404	0.000260264	0.00142796	10.5016	1246.74	6725.76	6840.33	-79.4984	0.0000000E+000	0.0000000E+000	0.0000000E+000	79.4984	0.0000000E+000	0.0000000E+000	0.0000000E+000	-79.4984	0.0000000E+000	0.0000000E+000	0.0000000E+000	-10.5016	0.0000000E+000	0.0000000E+000	0.0000000E+000	10.5016	5.39468	79.4984	-5.48153e-07	-1.17677e-06	72302.4
22.6581	707.402	111.301	716.105	-8.94144	41.9544	0.291695	-0.00398534	63.1103	1.52455	1	12	0.00918727	1.28295e-05	0	-5.59218e-05	0.00137947	0.000217042	0.00139644	8.94144	1524.55	9689.71	9808.91	-81.0586	0.0000000E+000	0.0000000E+000	0.0000000E+000	81.0586	0.0000000E+000	0.0000000E+000	0.0000000E+000	-81.0586	0.0000000E+000	0.0000000E+000	0.0000000E+000	-8.94144	0.0000000E+000	0.0000000E+000	0.0000000E+000	8.94144	6.35579	81.0586	-5.14989e-07	-1.1625e-06	73192
15.4805	721.837	106.857	729.704	-8.42062	42.4075	0.291687	-0.00399593	96.2124	2.06322	1	12	0.00918639	1.25892e-05	0	-5.64089e-05	0.00135565	0.000200683	0.00137042	8.42062	2063.22	13937.4	14089.3	-81.5794	0.0000000E+000	0.0000000E+000	0.0000000E+000	81.5794	0.0000000E+000	0.0000000E+000	0.0000000E+000	-81.5794	0.0000000E+000	0.0000000E+000	0.0000000E+000	-8.42062	0.0000000E+000	0.0000000E+000	0.0000000E+000	8.42062	6.75517	81.5794	-4.87171e-07	-1.16556e-06	72995.9
10.5717	739.763	105.846	747.297	-8.14266	42.8519	0.291685	-0.00402944	142.233	2.8534	1	12	0.00918429	1.229e-05	0	-5.68619e-05	0.00132467	0.000189534	0.00133816	8.14266	2853.4	19942.5	20145.6	-81.8573	0.0000000E+000	0.0000000E+000	0.0000000E+000	81.8573	0.0000000E+000	0.0000000E+000	0.0000000E+000	-81.8573	0.0000000E+000	0.0000000E+000	0.0000000E+000	-8.14266	0.0000000E+000	0.0000000E+000	0.0000000E+000	8.14266	6.98905	81.8573	-4.52967e-07	-1.17533e-06	72388.4
7.22042	759.532	112.009	767.746	-8.38903	43.1952	0.291695	-0.00394352	196.79	4.18867	1	12	0.00918397	1.19622e-05	0	-5.73615e-05	0.00128858	0.000190028	0.00130251	8.38903	4188.67	28403.2	28710.4	-81.611	0.0000000E+000	0.0000000E+000	0.0000000E+000	81.611	0.0000000E+000	0.0000000E+000	0.0000000E+000	-81.611	0.0000000E+000	0.0000000E+000	0.0000000E+000	-8.38903	0.0000000E+000	0.0000000E+000	0.0000000E+000	8.38903	6.78097	81.611	-4.99574e-07	-1.15031e-06	73968.1
4.93213	780.351	122.354	789.885	-8.91102	43.6725	0.291688	-0.00400391	263.736	6.32811	1	12	0.0091826	1.16252e-05	0	-5.77646e-05	0.00125073	0.000196105	0.00126601	8.91102	6328.11	40359.7	40852.8	-81.089	0.0000000E+000	0.0000000E+000	0.0000000E+000	81.089	0.0000000E+000	0.0000000E+000	0.0000000E+000	-81.089	0.0000000E+000	0.0000000E+000	0.0000000E+000	-8.91102	0.0000000E+000	0.0000000E+000	0.0000000E+000	8.91102	6.37784	81.089	-4.03101e-07	-1.16789e-06	72850.8
3.36746	804.277	137.429	815.934	-9.69667	44.6918	0.291689	-0.00399186	343.905	9.75636	1	13	0.00918824	1.1261e-05	0	-5.88413e-05	0.00120808	0.000206429	0.00122559	9.69667	9756.36	57097.1	57924.6	-80.3033	0.0000000E+000	0.0000000E+000	0.0000000E+000	80.3033	0.0000000E+000	0.0000000E+000	0.0000000E+000	-80.3033	0.0000000E+000	0.0000000E+000	0.0000000E+000	-9.69667	0.0000000E+000	0.0000000E+000	0.0000000E+000	9.69667	5.85229	80.3033	-1.07677e-06	-1.16438e-06	73071
2.29779	833.082	157.361	847.813	-10.6966	45.6471	0.291695	-0.00397319	440.161	15.1637	1	13	0.0091907	1.08405e-05	0	-6.00761e-05	0.00115901	0.000218926	0.0011795	10.6966	15163.7	80277.9	81697.5	-79.3034	0.0000000E+000	0.0000000E+000	0.0000000E+000	79.3034	0.0000000E+000	0.0000000E+000	0.0000000E+000	-79.3034	0.0000000E+000	0.0000000E+000	0.0000000E+000	-10.6966	0.0000000E+000	0.0000000E+000	0.0000000E+000	10.6966	5.29407	79.3034	-1.23476e-06	-1.15896e-06	73415.9
1.56877	868.469	188.352	888.659	-12.2367	47.0285	0.291695	-0.0039893	538.628	24.1969	1	13	0.00918933	1.03407e-05	0	-6.1555e-05	0.00109972	0.000238506	0.00112529	12.2367	24196.9	111569	114163	-77.7633	0.0000000E+000	0.0000000E+000	0.0000000E+000	77.7633	0.0000000E+000	0.0000000E+000	0.0000000E+000	-77.7633	0.0000000E+000	0.0000000E+000	0.0000000E+000	-12.2367	0.0000000E+000	0.0000000E+000	0.0000000E+000	12.2367	4.61088	77.7633	-1.47892e-06	-1.16366e-06	73119.4
1.07315	903.25	223.215	930.422	-13.8811	49.0251	0.291703	-0.00394257	664.413	38.2406	1	13	0.00918968	9.87689e-06	0	-6.3434e-05	0.00104339	0.000257848	0.00107478	13.8811	38240.6	154742	159397	-76.1189	0.0000000E+000	0.0000000E+000	0.0000000E+000	76.1189	0.0000000E+000	0.0000000E+000	0.0000000E+000	-76.1189	0.0000000E+000	0.0000000E+000	0.0000000E+000	-13.8811	0.0000000E+000	0.0000000E+000	0.0000000E+000	13.8811	4.04655	76.1189	-1.87899e-06	-1.15006e-06	73988
0.731508	951.778	261.606	987.076	-15.3688	51.9344	0.291699	-0.0038513	831.674	58.4182	1	13	0.00918766	9.30795e-06	0	-6.61679e-05	0.000976864	0.000268501	0.00101309	15.3688	58418.2	212537	220420	-74.6312	0.0000000E+000	0.0000000E+000	0.0000000E+000	74.6312	0.0000000E+000	0.0000000E+000	0.0000000E+000	-74.6312	0.0000000E+000	0.0000000E+000	0.0000000E+000	-15.3688	0.0000000E+000	0.0000000E+000	0.0000000E+000	15.3688	3.63821	74.6312	-2.73387e-06	-1.12342e-06	75740.3
0.500032	1011.99	315.181	1059.93	-17.2991	56.173	0.291695	-0.00375192	1009.86	89.2944	1	13	0.00918962	8.66998e-06	0	-7.04044e-05	0.000900778	0.000280545	0.000943454	17.2991	89294.4	286708	300292	-72.7009	0.0000000E+000	0.0000000E+000	0.0000000E+000	72.7009	0.0000000E+000	0.0000000E+000	0.0000000E+000	-72.7009	0.0000000E+000	0.0000000E+000	0.0000000E+000	-17.2991	0.0000000E+000	0.0000000E+000	0.0000000E+000	17.2991	3.21082	72.7009	-4.23651e-06	-1.09442e-06	77745.6