File: CoinCells/2025-09-26_09-06-51_Practical Course EC2 SoSe25_EC2_Group3_DS_A.7.csv
Header line count: 79
Export version: 3.12
User:
 - name: Labor Labor
 - login: Labor
 - email: N/A

Project:
 - name: Practical Course EC2 SoSe25
 - tags: N/A
 - creator: Labor Labor

Test Plan:
 - name: CoinCell_Cycling_SoSe25
 - tags: N/A
 - creator: Labor Labor
 - tasks:
Step,Type,Control Parameters,Limits,Record Conditions
1,REST,,TIME > 6.0000h then NEXT_STEP,DELTA_TIME = 30.000s
2,LOOP,LOOP_ID: LOOP_1 LOOP_MODE: COUNTER COUNTER: 1 ,COUNTER > 10 then NEXT_STEP,
3,CC,I: 237.50µA I_RANGE_MODE: FIX I_RANGE: 1.0000mA,TIME > 12.000h then NEXT_STEP U > 4.2000V then NEXT_STEP,DELTA_TIME = 30.000s
4,CC,I: -237.50µA I_RANGE_MODE: FIX I_RANGE: 1.0000mA,TIME > 12.000h then NEXT_STEP U < 2.4000V then NEXT_STEP,DELTA_TIME = 30.000s
N/A,LOOP,END LOOP_ID : LOOP_1,
5,LOOP,LOOP_ID: LOOP_2 LOOP_MODE: COUNTER COUNTER: 1 ,COUNTER > 10 then NEXT_STEP,
6,CC,I: 2375.0µA I_RANGE_MODE: FIX I_RANGE: 10.000mA,TIME > 2.0000h then NEXT_STEP U > 4.2000V then NEXT_STEP,DELTA_TIME = 10.000s
7,CC,I: -2375.0µA I_RANGE_MODE: FIX I_RANGE: 10.000mA,TIME > 2.0000h then NEXT_STEP U < 2.4000V then NEXT_STEP,DELTA_TIME = 10.000s
N/A,LOOP,END LOOP_ID : LOOP_2,
8,LOOP,LOOP_ID: LOOP_3 LOOP_MODE: COUNTER COUNTER: 1 ,COUNTER > 10 then NEXT_STEP,
9,CC,I: 4750.0µA I_RANGE_MODE: FIX I_RANGE: 10.000mA,TIME > 1.0000h then NEXT_STEP U > 4.2000V then NEXT_STEP,DELTA_TIME = 5.0000s
10,CC,I: -4750.0µA I_RANGE_MODE: FIX I_RANGE: 10.000mA,TIME > 1.0000h then NEXT_STEP U < 2.4000V then NEXT_STEP,DELTA_TIME = 5.0000s
N/A,LOOP,END LOOP_ID : LOOP_3,
 - no user variable
 - safety limits (after a time of 10.000ms):
  - U > 4.7000V then SAFETY_STOP

DUT Type:
 - name: Default Device Under Test
 - electrolyte: N/A
 - electrode material: N/A
 - description: N/A
 - tags: N/A
 - nominal capacity: N/A
 - maximum voltage: N/A
 - nominal voltage: N/A
 - minimum voltage: N/A
 - nominal energy: N/A
 - maximum discharge current: N/A
 - maximum charge current: N/A
 - mass: N/A
 - volume: N/A
 - surface area: N/A
 - characteristic mass: N/A
 - mass of active material: N/A
 - x: N/A
 - Molecular weight of active material at x=0: N/A
 - Acquisition started at x0=: N/A
 - Intercalated ion molecular weight of active material at x=0: N/A
 - Number of electrons transferred per intercalated ions: N/A

Test Run:
  - name: EC2_Group3_DS
  - tags: N/A
  - creator: Labor Labor
  - batch number: N/A
  - started on: 2025-09-16 10:23:18.6718
  - finished on: 2025-09-16 21:51:28.0414

Dut Run:
  - DUT Name: N/A
  - Comment: N/A

Instrument:
  - channel: A.7
  - model: BCS-905
  - serial number: 0729

System version: 3.0.0-9
System address: 10.128.128.50

Time /s,Step,Task,Cycle number,Loop 1 number,Loop 2 number,Loop 3 number,Loop 4 number,U /V,I /A,P /W,Q /Ah,Q charge /Ah,Q discharge /Ah,Capacity /Ah,Energy /Wh,Energy charge /Wh,Energy discharge /Wh,Temperature /CelsiusDegrees,I Range /A,Phase,Frequency /Hz,Ua /V,Ia /A,Impedance module /Ohms,Impedance phase /rad,Real impedance /Ohms,- Imaginary impedance /Ohms,Admittance module /Ohms,Admittance phase /rad,Real admittance /Ohms,Imaginary admittance /Ohms,@Var1,@Var2,@Var3,@Var4,@Var5,@Var6,@Var7,@Var8,@Var9,@Var10,Date Time /ns,Duration (step) /s,Umin (step) /V,Umax (step) /V,Umean (step) /V,Ubegin (step) /V,Uend (step) /V,Imin (step) /A,Imax (step) /A,Imean (step) /A,Ibegin (step) /A,Iend (step) /A,Q (step) /Ah,Q charge (step) /Ah,Q discharge (step) /Ah,Energy (step) /Wh,Energy charge (step) /Wh,Energy discharge (step) /Wh,Pmin (step) /W,Pmax (step) /W,Rdc (step) /Ohms,Rac (step) /Ohms,Counter value (loop),Loop ID (loop),List value (loop),Duration (loop) /s,Q (loop) /Ah,Q charge (loop) /Ah,Q discharge (loop) /Ah,Energy (loop) /Wh,Energy charge (loop) /Wh,Energy discharge (loop) /Wh,Duration (cycle) /s,Q (cycle) /Ah,Q charge (cycle) /Ah,Q discharge (cycle) /Ah,Efficiency (cycle) /none,Energy (cycle) /Wh,Energy charge (cycle) /Wh,Energy discharge (cycle) /Wh
0.005,task_1,REST,,,,,,0.349772,0.0,0.0,0.0,0.0,0.0,0.0,0.0,0.0,0.0,,,,,,,,,,,,,,,,,,,,,,,,,1.75802e+09,,,,,,,,,,,,,,,,,,,,,,,,,,,,,,,,,,,,,,,
180.005,task_1,REST,,,,,,0.391103,0.0,0.0,0.0,0.0,0.0,0.0,0.0,0.0,0.0,,,,,,,,,,,,,,,,,,,,,,,,,1.75802e+09,,,,,,,,,,,,,,,,,,,,,,,,,,,,,,,,,,,,,,,
360.005,task_1,REST,,,,,,0.0397036,0.0,0.0,0.0,0.0,0.0,0.0,0.0,0.0,0.0,,,,,,,,,,,,,,,,,,,,,,,,,1.75802e+09,,,,,,,,,,,,,,,,,,,,,,,,,,,,,,,,,,,,,,,
540.005,task_1,REST,,,,,,-0.0199056,0.0,-0.0,0.0,0.0,0.0,0.0,0.0,0.0,0.0,,,,,,,,,,,,,,,,,,,,,,,,,1.75802e+09,,,,,,,,,,,,,,,,,,,,,,,,,,,,,,,,,,,,,,,
720.005,task_1,REST,,,,,,0.299263,0.0,0.0,0.0,0.0,0.0,0.0,0.0,0.0,0.0,,,,,,,,,,,,,,,,,,,,,,,,,1.75802e+09,,,,,,,,,,,,,,,,,,,,,,,,,,,,,,,,,,,,,,,
900.005,task_1,REST,,,,,,0.386553,0.0,0.0,0.0,0.0,0.0,0.0,0.0,0.0,0.0,,,,,,,,,,,,,,,,,,,,,,,,,1.75802e+09,,,,,,,,,,,,,,,,,,,,,,,,,,,,,,,,,,,,,,,
1080.005,task_1,REST,,,,,,0.21601,0.0,0.0,0.0,0.0,0.0,0.0,0.0,0.0,0.0,,,,,,,,,,,,,,,,,,,,,,,,,1.75802e+09,,,,,,,,,,,,,,,,,,,,,,,,,,,,,,,,,,,,,,,
1260.005,task_1,REST,,,,,,0.399845,0.0,0.0,0.0,0.0,0.0,0.0,0.0,0.0,0.0,,,,,,,,,,,,,,,,,,,,,,,,,1.75802e+09,,,,,,,,,,,,,,,,,,,,,,,,,,,,,,,,,,,,,,,
1440.005,task_1,REST,,,,,,0.342271,0.0,0.0,0.0,0.0,0.0,0.0,0.0,0.0,0.0,,,,,,,,,,,,,,,,,,,,,,,,,1.75802e+09,,,,,,,,,,,,,,,,,,,,,,,,,,,,,,,,,,,,,,,
1620.005,task_1,REST,,,,,,0.344295,0.0,0.0,0.0,0.0,0.0,0.0,0.0,0.0,0.0,,,,,,,,,,,,,,,,,,,,,,,,,1.75802e+09,,,,,,,,,,,,,,,,,,,,,,,,,,,,,,,,,,,,,,,
1800.005,task_1,REST,,,,,,0.398532,0.0,0.0,0.0,0.0,0.0,0.0,0.0,0.0,0.0,,,,,,,,,,,,,,,,,,,,,,,,,1.75802e+09,,,,,,,,,,,,,,,,,,,,,,,,,,,,,,,,,,,,,,,
1980.005,task_1,REST,,,,,,-0.0676076,0.0,-0.0,0.0,0.0,0.0,0.0,0.0,0.0,0.0,,,,,,,,,,,,,,,,,,,,,,,,,1.75802e+09,,,,,,,,,,,,,,,,,,,,,,,,,,,,,,,,,,,,,,,
2160.005,task_1,REST,,,,,,0.271348,0.0,0.0,0.0,0.0,0.0,0.0,0.0,0.0,0.0,,,,,,,,,,,,,,,,,,,,,,,,,1.75802e+09,,,,,,,,,,,,,,,,,,,,,,,,,,,,,,,,,,,,,,,
2340.005,task_1,REST,,,,,,0.340843,0.0,0.0,0.0,0.0,0.0,0.0,0.0,0.0,0.0,,,,,,,,,,,,,,,,,,,,,,,,,1.75802e+09,,,,,,,,,,,,,,,,,,,,,,,,,,,,,,,,,,,,,,,
2520.005,task_1,REST,,,,,,0.0578458,0.0,0.0,0.0,0.0,0.0,0.0,0.0,0.0,0.0,,,,,,,,,,,,,,,,,,,,,,,,,1.75802e+09,,,,,,,,,,,,,,,,,,,,,,,,,,,,,,,,,,,,,,,
2700.005,task_1,REST,,,,,,-0.172257,0.0,-0.0,0.0,0.0,0.0,0.0,0.0,0.0,0.0,,,,,,,,,,,,,,,,,,,,,,,,,1.75802e+09,,,,,,,,,,,,,,,,,,,,,,,,,,,,,,,,,,,,,,,
2880.005,task_1,REST,,,,,,0.395271,0.0,0.0,0.0,0.0,0.0,0.0,0.0,0.0,0.0,,,,,,,,,,,,,,,,,,,,,,,,,1.75802e+09,,,,,,,,,,,,,,,,,,,,,,,,,,,,,,,,,,,,,,,
3060.005,task_1,REST,,,,,,0.405007,0.0,0.0,0.0,0.0,0.0,0.0,0.0,0.0,0.0,,,,,,,,,,,,,,,,,,,,,,,,,1.75802e+09,,,,,,,,,,,,,,,,,,,,,,,,,,,,,,,,,,,,,,,
3240.005,task_1,REST,,,,,,0.405371,0.0,0.0,0.0,0.0,0.0,0.0,0.0,0.0,0.0,,,,,,,,,,,,,,,,,,,,,,,,,1.75802e+09,,,,,,,,,,,,,,,,,,,,,,,,,,,,,,,,,,,,,,,
3420.005,task_1,REST,,,,,,0.404979,0.0,0.0,0.0,0.0,0.0,0.0,0.0,0.0,0.0,,,,,,,,,,,,,,,,,,,,,,,,,1.75802e+09,,,,,,,,,,,,,,,,,,,,,,,,,,,,,,,,,,,,,,,
3600.005,task_1,REST,,,,,,0.404745,0.0,0.0,0.0,0.0,0.0,0.0,0.0,0.0,0.0,,,,,,,,,,,,,,,,,,,,,,,,,1.75802e+09,,,,,,,,,,,,,,,,,,,,,,,,,,,,,,,,,,,,,,,
3780.005,task_1,REST,,,,,,0.406747,0.0,0.0,0.0,0.0,0.0,0.0,0.0,0.0,0.0,,,,,,,,,,,,,,,,,,,,,,,,,1.75802e+09,,,,,,,,,,,,,,,,,,,,,,,,,,,,,,,,,,,,,,,
3960.005,task_1,REST,,,,,,0.407267,0.0,0.0,0.0,0.0,0.0,0.0,0.0,0.0,0.0,,,,,,,,,,,,,,,,,,,,,,,,,1.75802e+09,,,,,,,,,,,,,,,,,,,,,,,,,,,,,,,,,,,,,,,
4140.005,task_1,REST,,,,,,0.407561,0.0,0.0,0.0,0.0,0.0,0.0,0.0,0.0,0.0,,,,,,,,,,,,,,,,,,,,,,,,,1.75802e+09,,,,,,,,,,,,,,,,,,,,,,,,,,,,,,,,,,,,,,,
4320.005,task_1,REST,,,,,,0.407856,0.0,0.0,0.0,0.0,0.0,0.0,0.0,0.0,0.0,,,,,,,,,,,,,,,,,,,,,,,,,1.75802e+09,,,,,,,,,,,,,,,,,,,,,,,,,,,,,,,,,,,,,,,
4500.005,task_1,REST,,,,,,0.407904,0.0,0.0,0.0,0.0,0.0,0.0,0.0,0.0,0.0,,,,,,,,,,,,,,,,,,,,,,,,,1.75802e+09,,,,,,,,,,,,,,,,,,,,,,,,,,,,,,,,,,,,,,,
4680.005,task_1,REST,,,,,,0.407978,0.0,0.0,0.0,0.0,0.0,0.0,0.0,0.0,0.0,,,,,,,,,,,,,,,,,,,,,,,,,1.75802e+09,,,,,,,,,,,,,,,,,,,,,,,,,,,,,,,,,,,,,,,
4860.005,task_1,REST,,,,,,0.404231,0.0,0.0,0.0,0.0,0.0,0.0,0.0,0.0,0.0,,,,,,,,,,,,,,,,,,,,,,,,,1.75802e+09,,,,,,,,,,,,,,,,,,,,,,,,,,,,,,,,,,,,,,,
5040.005,task_1,REST,,,,,,0.409092,0.0,0.0,0.0,0.0,0.0,0.0,0.0,0.0,0.0,,,,,,,,,,,,,,,,,,,,,,,,,1.75802e+09,,,,,,,,,,,,,,,,,,,,,,,,,,,,,,,,,,,,,,,
5220.005,task_1,REST,,,,,,0.287545,0.0,0.0,0.0,0.0,0.0,0.0,0.0,0.0,0.0,,,,,,,,,,,,,,,,,,,,,,,,,1.75802e+09,,,,,,,,,,,,,,,,,,,,,,,,,,,,,,,,,,,,,,,
5400.005,task_1,REST,,,,,,0.279999,0.0,0.0,0.0,0.0,0.0,0.0,0.0,0.0,0.0,,,,,,,,,,,,,,,,,,,,,,,,,1.75802e+09,,,,,,,,,,,,,,,,,,,,,,,,,,,,,,,,,,,,,,,
5580.005,task_1,REST,,,,,,0.229771,0.0,0.0,0.0,0.0,0.0,0.0,0.0,0.0,0.0,,,,,,,,,,,,,,,,,,,,,,,,,1.75802e+09,,,,,,,,,,,,,,,,,,,,,,,,,,,,,,,,,,,,,,,
5760.005,task_1,REST,,,,,,0.378667,0.0,0.0,0.0,0.0,0.0,0.0,0.0,0.0,0.0,,,,,,,,,,,,,,,,,,,,,,,,,1.75802e+09,,,,,,,,,,,,,,,,,,,,,,,,,,,,,,,,,,,,,,,
5940.005,task_1,REST,,,,,,0.409485,0.0,0.0,0.0,0.0,0.0,0.0,0.0,0.0,0.0,,,,,,,,,,,,,,,,,,,,,,,,,1.75802e+09,,,,,,,,,,,,,,,,,,,,,,,,,,,,,,,,,,,,,,,
6120.005,task_1,REST,,,,,,0.409988,0.0,0.0,0.0,0.0,0.0,0.0,0.0,0.0,0.0,,,,,,,,,,,,,,,,,,,,,,,,,1.75802e+09,,,,,,,,,,,,,,,,,,,,,,,,,,,,,,,,,,,,,,,
6300.005,task_1,REST,,,,,,0.402156,0.0,0.0,0.0,0.0,0.0,0.0,0.0,0.0,0.0,,,,,,,,,,,,,,,,,,,,,,,,,1.75802e+09,,,,,,,,,,,,,,,,,,,,,,,,,,,,,,,,,,,,,,,
6480.005,task_1,REST,,,,,,0.0529737,0.0,0.0,0.0,0.0,0.0,0.0,0.0,0.0,0.0,,,,,,,,,,,,,,,,,,,,,,,,,1.75802e+09,,,,,,,,,,,,,,,,,,,,,,,,,,,,,,,,,,,,,,,
6660.005,task_1,REST,,,,,,0.0726732,0.0,0.0,0.0,0.0,0.0,0.0,0.0,0.0,0.0,,,,,,,,,,,,,,,,,,,,,,,,,1.75802e+09,,,,,,,,,,,,,,,,,,,,,,,,,,,,,,,,,,,,,,,
6840.005,task_1,REST,,,,,,-0.114608,0.0,-0.0,0.0,0.0,0.0,0.0,0.0,0.0,0.0,,,,,,,,,,,,,,,,,,,,,,,,,1.75803e+09,,,,,,,,,,,,,,,,,,,,,,,,,,,,,,,,,,,,,,,
7020.005,task_1,REST,,,,,,0.172656,0.0,0.0,0.0,0.0,0.0,0.0,0.0,0.0,0.0,,,,,,,,,,,,,,,,,,,,,,,,,1.75803e+09,,,,,,,,,,,,,,,,,,,,,,,,,,,,,,,,,,,,,,,
7200.005,task_1,REST,,,,,,0.411179,0.0,0.0,0.0,0.0,0.0,0.0,0.0,0.0,0.0,,,,,,,,,,,,,,,,,,,,,,,,,1.75803e+09,,,,,,,,,,,,,,,,,,,,,,,,,,,,,,,,,,,,,,,
7380.005,task_1,REST,,,,,,0.41126,0.0,0.0,0.0,0.0,0.0,0.0,0.0,0.0,0.0,,,,,,,,,,,,,,,,,,,,,,,,,1.75803e+09,,,,,,,,,,,,,,,,,,,,,,,,,,,,,,,,,,,,,,,
7560.005,task_1,REST,,,,,,0.411334,0.0,0.0,0.0,0.0,0.0,0.0,0.0,0.0,0.0,,,,,,,,,,,,,,,,,,,,,,,,,1.75803e+09,,,,,,,,,,,,,,,,,,,,,,,,,,,,,,,,,,,,,,,
7740.005,task_1,REST,,,,,,0.411389,0.0,0.0,0.0,0.0,0.0,0.0,0.0,0.0,0.0,,,,,,,,,,,,,,,,,,,,,,,,,1.75803e+09,,,,,,,,,,,,,,,,,,,,,,,,,,,,,,,,,,,,,,,
7920.005,task_1,REST,,,,,,0.354923,0.0,0.0,0.0,0.0,0.0,0.0,0.0,0.0,0.0,,,,,,,,,,,,,,,,,,,,,,,,,1.75803e+09,,,,,,,,,,,,,,,,,,,,,,,,,,,,,,,,,,,,,,,
8100.005,task_1,REST,,,,,,-0.122496,0.0,-0.0,0.0,0.0,0.0,0.0,0.0,0.0,0.0,,,,,,,,,,,,,,,,,,,,,,,,,1.75803e+09,,,,,,,,,,,,,,,,,,,,,,,,,,,,,,,,,,,,,,,
8280.005,task_1,REST,,,,,,-0.172257,0.0,-0.0,0.0,0.0,0.0,0.0,0.0,0.0,0.0,,,,,,,,,,,,,,,,,,,,,,,,,1.75803e+09,,,,,,,,,,,,,,,,,,,,,,,,,,,,,,,,,,,,,,,
8460.005,task_1,REST,,,,,,0.0323358,0.0,0.0,0.0,0.0,0.0,0.0,0.0,0.0,0.0,,,,,,,,,,,,,,,,,,,,,,,,,1.75803e+09,,,,,,,,,,,,,,,,,,,,,,,,,,,,,,,,,,,,,,,
8640.005,task_1,REST,,,,,,-0.0503206,0.0,-0.0,0.0,0.0,0.0,0.0,0.0,0.0,0.0,,,,,,,,,,,,,,,,,,,,,,,,,1.75803e+09,,,,,,,,,,,,,,,,,,,,,,,,,,,,,,,,,,,,,,,
8820.005,task_1,REST,,,,,,0.222683,0.0,0.0,0.0,0.0,0.0,0.0,0.0,0.0,0.0,,,,,,,,,,,,,,,,,,,,,,,,,1.75803e+09,,,,,,,,,,,,,,,,,,,,,,,,,,,,,,,,,,,,,,,
9000.005,task_1,REST,,,,,,0.400372,0.0,0.0,0.0,0.0,0.0,0.0,0.0,0.0,0.0,,,,,,,,,,,,,,,,,,,,,,,,,1.75803e+09,,,,,,,,,,,,,,,,,,,,,,,,,,,,,,,,,,,,,,,
9180.005,task_1,REST,,,,,,0.410515,0.0,0.0,0.0,0.0,0.0,0.0,0.0,0.0,0.0,,,,,,,,,,,,,,,,,,,,,,,,,1.75803e+09,,,,,,,,,,,,,,,,,,,,,,,,,,,,,,,,,,,,,,,
9360.005,task_1,REST,,,,,,0.390942,0.0,0.0,0.0,0.0,0.0,0.0,0.0,0.0,0.0,,,,,,,,,,,,,,,,,,,,,,,,,1.75803e+09,,,,,,,,,,,,,,,,,,,,,,,,,,,,,,,,,,,,,,,
9540.005,task_1,REST,,,,,,-0.0126259,0.0,-0.0,0.0,0.0,0.0,0.0,0.0,0.0,0.0,,,,,,,,,,,,,,,,,,,,,,,,,1.75803e+09,,,,,,,,,,,,,,,,,,,,,,,,,,,,,,,,,,,,,,,
9720.005,task_1,REST,,,,,,-0.172257,0.0,-0.0,0.0,0.0,0.0,0.0,0.0,0.0,0.0,,,,,,,,,,,,,,,,,,,,,,,,,1.75803e+09,,,,,,,,,,,,,,,,,,,,,,,,,,,,,,,,,,,,,,,
9900.005,task_1,REST,,,,,,-0.172257,0.0,-0.0,0.0,0.0,0.0,0.0,0.0,0.0,0.0,,,,,,,,,,,,,,,,,,,,,,,,,1.75803e+09,,,,,,,,,,,,,,,,,,,,,,,,,,,,,,,,,,,,,,,
10080.005,task_1,REST,,,,,,0.39311,0.0,0.0,0.0,0.0,0.0,0.0,0.0,0.0,0.0,,,,,,,,,,,,,,,,,,,,,,,,,1.75803e+09,,,,,,,,,,,,,,,,,,,,,,,,,,,,,,,,,,,,,,,
10260.005,task_1,REST,,,,,,0.410596,0.0,0.0,0.0,0.0,0.0,0.0,0.0,0.0,0.0,,,,,,,,,,,,,,,,,,,,,,,,,1.75803e+09,,,,,,,,,,,,,,,,,,,,,,,,,,,,,,,,,,,,,,,
10440.005,task_1,REST,,,,,,0.40511,0.0,0.0,0.0,0.0,0.0,0.0,0.0,0.0,0.0,,,,,,,,,,,,,,,,,,,,,,,,,1.75803e+09,,,,,,,,,,,,,,,,,,,,,,,,,,,,,,,,,,,,,,,
10620.005,task_1,REST,,,,,,0.394402,0.0,0.0,0.0,0.0,0.0,0.0,0.0,0.0,0.0,,,,,,,,,,,,,,,,,,,,,,,,,1.75803e+09,,,,,,,,,,,,,,,,,,,,,,,,,,,,,,,,,,,,,,,
10800.005,task_1,REST,,,,,,0.0136446,0.0,0.0,0.0,0.0,0.0,0.0,0.0,0.0,0.0,,,,,,,,,,,,,,,,,,,,,,,,,1.75803e+09,,,,,,,,,,,,,,,,,,,,,,,,,,,,,,,,,,,,,,,
10980.005,task_1,REST,,,,,,-0.172257,0.0,-0.0,0.0,0.0,0.0,0.0,0.0,0.0,0.0,,,,,,,,,,,,,,,,,,,,,,,,,1.75803e+09,,,,,,,,,,,,,,,,,,,,,,,,,,,,,,,,,,,,,,,
11160.005,task_1,REST,,,,,,-0.172257,0.0,-0.0,0.0,0.0,0.0,0.0,0.0,0.0,0.0,,,,,,,,,,,,,,,,,,,,,,,,,1.75803e+09,,,,,,,,,,,,,,,,,,,,,,,,,,,,,,,,,,,,,,,
11340.005,task_1,REST,,,,,,0.253578,0.0,0.0,0.0,0.0,0.0,0.0,0.0,0.0,0.0,,,,,,,,,,,,,,,,,,,,,,,,,1.75803e+09,,,,,,,,,,,,,,,,,,,,,,,,,,,,,,,,,,,,,,,
11520.005,task_1,REST,,,,,,0.267836,0.0,0.0,0.0,0.0,0.0,0.0,0.0,0.0,0.0,,,,,,,,,,,,,,,,,,,,,,,,,1.75803e+09,,,,,,,,,,,,,,,,,,,,,,,,,,,,,,,,,,,,,,,
11700.005,task_1,REST,,,,,,0.315095,0.0,0.0,0.0,0.0,0.0,0.0,0.0,0.0,0.0,,,,,,,,,,,,,,,,,,,,,,,,,1.75803e+09,,,,,,,,,,,,,,,,,,,,,,,,,,,,,,,,,,,,,,,
11880.005,task_1,REST,,,,,,-0.0723848,0.0,-0.0,0.0,0.0,0.0,0.0,0.0,0.0,0.0,,,,,,,,,,,,,,,,,,,,,,,,,1.75803e+09,,,,,,,,,,,,,,,,,,,,,,,,,,,,,,,,,,,,,,,
12060.005,task_1,REST,,,,,,-0.172257,0.0,-0.0,0.0,0.0,0.0,0.0,0.0,0.0,0.0,,,,,,,,,,,,,,,,,,,,,,,,,1.75803e+09,,,,,,,,,,,,,,,,,,,,,,,,,,,,,,,,,,,,,,,
12240.005,task_1,REST,,,,,,-0.172257,0.0,-0.0,0.0,0.0,0.0,0.0,0.0,0.0,0.0,,,,,,,,,,,,,,,,,,,,,,,,,1.75803e+09,,,,,,,,,,,,,,,,,,,,,,,,,,,,,,,,,,,,,,,
12420.005,task_1,REST,,,,,,-0.172257,0.0,-0.0,0.0,0.0,0.0,0.0,0.0,0.0,0.0,,,,,,,,,,,,,,,,,,,,,,,,,1.75803e+09,,,,,,,,,,,,,,,,,,,,,,,,,,,,,,,,,,,,,,,
12600.005,task_1,REST,,,,,,-0.172257,0.0,-0.0,0.0,0.0,0.0,0.0,0.0,0.0,0.0,,,,,,,,,,,,,,,,,,,,,,,,,1.75803e+09,,,,,,,,,,,,,,,,,,,,,,,,,,,,,,,,,,,,,,,
12780.005,task_1,REST,,,,,,-0.172257,0.0,-0.0,0.0,0.0,0.0,0.0,0.0,0.0,0.0,,,,,,,,,,,,,,,,,,,,,,,,,1.75803e+09,,,,,,,,,,,,,,,,,,,,,,,,,,,,,,,,,,,,,,,
12960.005,task_1,REST,,,,,,-0.0105277,0.0,-0.0,0.0,0.0,0.0,0.0,0.0,0.0,0.0,,,,,,,,,,,,,,,,,,,,,,,,,1.75803e+09,,,,,,,,,,,,,,,,,,,,,,,,,,,,,,,,,,,,,,,
13140.005,task_1,REST,,,,,,-0.0946386,0.0,-0.0,0.0,0.0,0.0,0.0,0.0,0.0,0.0,,,,,,,,,,,,,,,,,,,,,,,,,1.75803e+09,,,,,,,,,,,,,,,,,,,,,,,,,,,,,,,,,,,,,,,
13320.005,task_1,REST,,,,,,0.125941,0.0,0.0,0.0,0.0,0.0,0.0,0.0,0.0,0.0,,,,,,,,,,,,,,,,,,,,,,,,,1.75803e+09,,,,,,,,,,,,,,,,,,,,,,,,,,,,,,,,,,,,,,,
13500.005,task_1,REST,,,,,,-0.172257,0.0,-0.0,0.0,0.0,0.0,0.0,0.0,0.0,0.0,,,,,,,,,,,,,,,,,,,,,,,,,1.75803e+09,,,,,,,,,,,,,,,,,,,,,,,,,,,,,,,,,,,,,,,
13680.005,task_1,REST,,,,,,-0.172257,0.0,-0.0,0.0,0.0,0.0,0.0,0.0,0.0,0.0,,,,,,,,,,,,,,,,,,,,,,,,,1.75803e+09,,,,,,,,,,,,,,,,,,,,,,,,,,,,,,,,,,,,,,,
13860.005,task_1,REST,,,,,,-0.172257,0.0,-0.0,0.0,0.0,0.0,0.0,0.0,0.0,0.0,,,,,,,,,,,,,,,,,,,,,,,,,1.75803e+09,,,,,,,,,,,,,,,,,,,,,,,,,,,,,,,,,,,,,,,
14040.005,task_1,REST,,,,,,0.143888,0.0,0.0,0.0,0.0,0.0,0.0,0.0,0.0,0.0,,,,,,,,,,,,,,,,,,,,,,,,,1.75803e+09,,,,,,,,,,,,,,,,,,,,,,,,,,,,,,,,,,,,,,,
14220.005,task_1,REST,,,,,,0.109174,0.0,0.0,0.0,0.0,0.0,0.0,0.0,0.0,0.0,,,,,,,,,,,,,,,,,,,,,,,,,1.75803e+09,,,,,,,,,,,,,,,,,,,,,,,,,,,,,,,,,,,,,,,
14400.005,task_1,REST,,,,,,0.0099921,0.0,0.0,0.0,0.0,0.0,0.0,0.0,0.0,0.0,,,,,,,,,,,,,,,,,,,,,,,,,1.75803e+09,,,,,,,,,,,,,,,,,,,,,,,,,,,,,,,,,,,,,,,
14580.005,task_1,REST,,,,,,-0.172257,0.0,-0.0,0.0,0.0,0.0,0.0,0.0,0.0,0.0,,,,,,,,,,,,,,,,,,,,,,,,,1.75803e+09,,,,,,,,,,,,,,,,,,,,,,,,,,,,,,,,,,,,,,,
14760.005,task_1,REST,,,,,,-0.123687,0.0,-0.0,0.0,0.0,0.0,0.0,0.0,0.0,0.0,,,,,,,,,,,,,,,,,,,,,,,,,1.75803e+09,,,,,,,,,,,,,,,,,,,,,,,,,,,,,,,,,,,,,,,
14940.005,task_1,REST,,,,,,-0.172257,0.0,-0.0,0.0,0.0,0.0,0.0,0.0,0.0,0.0,,,,,,,,,,,,,,,,,,,,,,,,,1.75803e+09,,,,,,,,,,,,,,,,,,,,,,,,,,,,,,,,,,,,,,,
15120.005,task_1,REST,,,,,,-0.172257,0.0,-0.0,0.0,0.0,0.0,0.0,0.0,0.0,0.0,,,,,,,,,,,,,,,,,,,,,,,,,1.75803e+09,,,,,,,,,,,,,,,,,,,,,,,,,,,,,,,,,,,,,,,
15300.005,task_1,REST,,,,,,-0.172257,0.0,-0.0,0.0,0.0,0.0,0.0,0.0,0.0,0.0,,,,,,,,,,,,,,,,,,,,,,,,,1.75803e+09,,,,,,,,,,,,,,,,,,,,,,,,,,,,,,,,,,,,,,,
15480.005,task_1,REST,,,,,,0.11302,0.0,0.0,0.0,0.0,0.0,0.0,0.0,0.0,0.0,,,,,,,,,,,,,,,,,,,,,,,,,1.75803e+09,,,,,,,,,,,,,,,,,,,,,,,,,,,,,,,,,,,,,,,
15660.005,task_1,REST,,,,,,-0.172257,0.0,-0.0,0.0,0.0,0.0,0.0,0.0,0.0,0.0,,,,,,,,,,,,,,,,,,,,,,,,,1.75803e+09,,,,,,,,,,,,,,,,,,,,,,,,,,,,,,,,,,,,,,,
15840.005,task_1,REST,,,,,,-0.0171603,0.0,-0.0,0.0,0.0,0.0,0.0,0.0,0.0,0.0,,,,,,,,,,,,,,,,,,,,,,,,,1.75803e+09,,,,,,,,,,,,,,,,,,,,,,,,,,,,,,,,,,,,,,,
16020.005,task_1,REST,,,,,,0.403161,0.0,0.0,0.0,0.0,0.0,0.0,0.0,0.0,0.0,,,,,,,,,,,,,,,,,,,,,,,,,1.75803e+09,,,,,,,,,,,,,,,,,,,,,,,,,,,,,,,,,,,,,,,
16200.005,task_1,REST,,,,,,0.402813,0.0,0.0,0.0,0.0,0.0,0.0,0.0,0.0,0.0,,,,,,,,,,,,,,,,,,,,,,,,,1.75803e+09,,,,,,,,,,,,,,,,,,,,,,,,,,,,,,,,,,,,,,,
16380.005,task_1,REST,,,,,,0.402407,0.0,0.0,0.0,0.0,0.0,0.0,0.0,0.0,0.0,,,,,,,,,,,,,,,,,,,,,,,,,1.75803e+09,,,,,,,,,,,,,,,,,,,,,,,,,,,,,,,,,,,,,,,
16560.005,task_1,REST,,,,,,0.401907,0.0,0.0,0.0,0.0,0.0,0.0,0.0,0.0,0.0,,,,,,,,,,,,,,,,,,,,,,,,,1.75803e+09,,,,,,,,,,,,,,,,,,,,,,,,,,,,,,,,,,,,,,,
16740.005,task_1,REST,,,,,,0.277484,0.0,0.0,0.0,0.0,0.0,0.0,0.0,0.0,0.0,,,,,,,,,,,,,,,,,,,,,,,,,1.75803e+09,,,,,,,,,,,,,,,,,,,,,,,,,,,,,,,,,,,,,,,
16920.005,task_1,REST,,,,,,0.00963712,0.0,0.0,0.0,0.0,0.0,0.0,0.0,0.0,0.0,,,,,,,,,,,,,,,,,,,,,,,,,1.75804e+09,,,,,,,,,,,,,,,,,,,,,,,,,,,,,,,,,,,,,,,
17100.005,task_1,REST,,,,,,0.399588,0.0,0.0,0.0,0.0,0.0,0.0,0.0,0.0,0.0,,,,,,,,,,,,,,,,,,,,,,,,,1.75804e+09,,,,,,,,,,,,,,,,,,,,,,,,,,,,,,,,,,,,,,,
17280.005,task_1,REST,,,,,,0.371569,0.0,0.0,0.0,0.0,0.0,0.0,0.0,0.0,0.0,,,,,,,,,,,,,,,,,,,,,,,,,1.75804e+09,,,,,,,,,,,,,,,,,,,,,,,,,,,,,,,,,,,,,,,
17460.005,task_1,REST,,,,,,0.383855,0.0,0.0,0.0,0.0,0.0,0.0,0.0,0.0,0.0,,,,,,,,,,,,,,,,,,,,,,,,,1.75804e+09,,,,,,,,,,,,,,,,,,,,,,,,,,,,,,,,,,,,,,,
17640.005,task_1,REST,,,,,,0.356199,0.0,0.0,0.0,0.0,0.0,0.0,0.0,0.0,0.0,,,,,,,,,,,,,,,,,,,,,,,,,1.75804e+09,,,,,,,,,,,,,,,,,,,,,,,,,,,,,,,,,,,,,,,
17820.005,task_1,REST,,,,,,0.367582,0.0,0.0,0.0,0.0,0.0,0.0,0.0,0.0,0.0,,,,,,,,,,,,,,,,,,,,,,,,,1.75804e+09,,,,,,,,,,,,,,,,,,,,,,,,,,,,,,,,,,,,,,,
18000.005,task_1,REST,,,,,,0.174226,0.0,0.0,0.0,0.0,0.0,0.0,0.0,0.0,0.0,,,,,,,,,,,,,,,,,,,,,,,,,1.75804e+09,,,,,,,,,,,,,,,,,,,,,,,,,,,,,,,,,,,,,,,
18180.005,task_1,REST,,,,,,0.34005,0.0,0.0,0.0,0.0,0.0,0.0,0.0,0.0,0.0,,,,,,,,,,,,,,,,,,,,,,,,,1.75804e+09,,,,,,,,,,,,,,,,,,,,,,,,,,,,,,,,,,,,,,,
18360.005,task_1,REST,,,,,,-0.10232,0.0,-0.0,0.0,0.0,0.0,0.0,0.0,0.0,0.0,,,,,,,,,,,,,,,,,,,,,,,,,1.75804e+09,,,,,,,,,,,,,,,,,,,,,,,,,,,,,,,,,,,,,,,
18540.005,task_1,REST,,,,,,-0.0278255,0.0,-0.0,0.0,0.0,0.0,0.0,0.0,0.0,0.0,,,,,,,,,,,,,,,,,,,,,,,,,1.75804e+09,,,,,,,,,,,,,,,,,,,,,,,,,,,,,,,,,,,,,,,
18720.005,task_1,REST,,,,,,-0.158269,0.0,-0.0,0.0,0.0,0.0,0.0,0.0,0.0,0.0,,,,,,,,,,,,,,,,,,,,,,,,,1.75804e+09,,,,,,,,,,,,,,,,,,,,,,,,,,,,,,,,,,,,,,,
18900.005,task_1,REST,,,,,,-0.159402,0.0,-0.0,0.0,0.0,0.0,0.0,0.0,0.0,0.0,,,,,,,,,,,,,,,,,,,,,,,,,1.75804e+09,,,,,,,,,,,,,,,,,,,,,,,,,,,,,,,,,,,,,,,
19080.005,task_1,REST,,,,,,-0.122739,0.0,-0.0,0.0,0.0,0.0,0.0,0.0,0.0,0.0,,,,,,,,,,,,,,,,,,,,,,,,,1.75804e+09,,,,,,,,,,,,,,,,,,,,,,,,,,,,,,,,,,,,,,,
19260.005,task_1,REST,,,,,,-0.03682,0.0,-0.0,0.0,0.0,0.0,0.0,0.0,0.0,0.0,,,,,,,,,,,,,,,,,,,,,,,,,1.75804e+09,,,,,,,,,,,,,,,,,,,,,,,,,,,,,,,,,,,,,,,
19440.005,task_1,REST,,,,,,0.367096,0.0,0.0,0.0,0.0,0.0,0.0,0.0,0.0,0.0,,,,,,,,,,,,,,,,,,,,,,,,,1.75804e+09,,,,,,,,,,,,,,,,,,,,,,,,,,,,,,,,,,,,,,,
19620.005,task_1,REST,,,,,,0.264755,0.0,0.0,0.0,0.0,0.0,0.0,0.0,0.0,0.0,,,,,,,,,,,,,,,,,,,,,,,,,1.75804e+09,,,,,,,,,,,,,,,,,,,,,,,,,,,,,,,,,,,,,,,
19800.005,task_1,REST,,,,,,0.379245,0.0,0.0,0.0,0.0,0.0,0.0,0.0,0.0,0.0,,,,,,,,,,,,,,,,,,,,,,,,,1.75804e+09,,,,,,,,,,,,,,,,,,,,,,,,,,,,,,,,,,,,,,,
19980.005,task_1,REST,,,,,,0.174827,0.0,0.0,0.0,0.0,0.0,0.0,0.0,0.0,0.0,,,,,,,,,,,,,,,,,,,,,,,,,1.75804e+09,,,,,,,,,,,,,,,,,,,,,,,,,,,,,,,,,,,,,,,
20160.005,task_1,REST,,,,,,0.287685,0.0,0.0,0.0,0.0,0.0,0.0,0.0,0.0,0.0,,,,,,,,,,,,,,,,,,,,,,,,,1.75804e+09,,,,,,,,,,,,,,,,,,,,,,,,,,,,,,,,,,,,,,,
20340.005,task_1,REST,,,,,,0.193455,0.0,0.0,0.0,0.0,0.0,0.0,0.0,0.0,0.0,,,,,,,,,,,,,,,,,,,,,,,,,1.75804e+09,,,,,,,,,,,,,,,,,,,,,,,,,,,,,,,,,,,,,,,
20520.005,task_1,REST,,,,,,-0.0209847,0.0,-0.0,0.0,0.0,0.0,0.0,0.0,0.0,0.0,,,,,,,,,,,,,,,,,,,,,,,,,1.75804e+09,,,,,,,,,,,,,,,,,,,,,,,,,,,,,,,,,,,,,,,
20700.005,task_1,REST,,,,,,0.325877,0.0,0.0,0.0,0.0,0.0,0.0,0.0,0.0,0.0,,,,,,,,,,,,,,,,,,,,,,,,,1.75804e+09,,,,,,,,,,,,,,,,,,,,,,,,,,,,,,,,,,,,,,,
20880.005,task_1,REST,,,,,,0.387753,0.0,0.0,0.0,0.0,0.0,0.0,0.0,0.0,0.0,,,,,,,,,,,,,,,,,,,,,,,,,1.75804e+09,,,,,,,,,,,,,,,,,,,,,,,,,,,,,,,,,,,,,,,
21060.005,task_1,REST,,,,,,0.392876,0.0,0.0,0.0,0.0,0.0,0.0,0.0,0.0,0.0,,,,,,,,,,,,,,,,,,,,,,,,,1.75804e+09,,,,,,,,,,,,,,,,,,,,,,,,,,,,,,,,,,,,,,,
21240.005,task_1,REST,,,,,,0.38893,0.0,0.0,0.0,0.0,0.0,0.0,0.0,0.0,0.0,,,,,,,,,,,,,,,,,,,,,,,,,1.75804e+09,,,,,,,,,,,,,,,,,,,,,,,,,,,,,,,,,,,,,,,
21420.005,task_1,REST,,,,,,0.318191,0.0,0.0,0.0,0.0,0.0,0.0,0.0,0.0,0.0,,,,,,,,,,,,,,,,,,,,,,,,,1.75804e+09,,,,,,,,,,,,,,,,,,,,,,,,,,,,,,,,,,,,,,,
21600.002,task_1,REST,,,,,,0.364873,0.0,0.0,0.0,0.0,0.0,0.0,0.0,0.0,0.0,,,,,,,,,,,,,,,,,,,,,,,,,1.75804e+09,,,,,,,,,,,,,,,,,,,,,,,,,,,,,,,,,,,,,,,
21750.075,task_3,CC,1,1,,,,3.40881,0.000237786,0.000810567,9.90734e-06,9.90734e-06,0.0,9.90734e-06,3.00056e-05,3.00056e-05,0.0,,0.001,CHARGE,,,,,,,,,,,,,,,,,,,,,,1.75804e+09,,,,,,,,,,,,,,,,,,,,,,,,,,,,,,,,,,,,,,,
21930.075,task_3,CC,1,1,,,,3.74054,0.000237745,0.000889295,2.17963e-05,2.17963e-05,0.0,2.17963e-05,7.29203e-05,7.29203e-05,0.0,,0.001,CHARGE,,,,,,,,,,,,,,,,,,,,,,1.75804e+09,,,,,,,,,,,,,,,,,,,,,,,,,,,,,,,,,,,,,,,
22110.075,task_3,CC,1,1,,,,3.93923,0.000237762,0.000936602,3.36852e-05,3.36852e-05,0.0,3.36852e-05,0.000117934,0.000117934,0.0,,0.001,CHARGE,,,,,,,,,,,,,,,,,,,,,,1.75804e+09,,,,,,,,,,,,,,,,,,,,,,,,,,,,,,,,,,,,,,,
22290.075,task_3,CC,1,1,,,,4.05448,0.000237765,0.000964014,4.55744e-05,4.55744e-05,0.0,4.55744e-05,0.000165456,0.000165456,0.0,,0.001,CHARGE,,,,,,,,,,,,,,,,,,,,,,1.75804e+09,,,,,,,,,,,,,,,,,,,,,,,,,,,,,,,,,,,,,,,
22470.075,task_3,CC,1,1,,,,4.12111,0.000237794,0.000979975,5.74637e-05,5.74637e-05,0.0,5.74637e-05,0.000214078,0.000214078,0.0,,0.001,CHARGE,,,,,,,,,,,,,,,,,,,,,,1.75804e+09,,,,,,,,,,,,,,,,,,,,,,,,,,,,,,,,,,,,,,,
22650.075,task_3,CC,1,1,,,,4.17391,0.000237773,0.000992444,6.93527e-05,6.93527e-05,0.0,6.93527e-05,0.000262763,0.000262763,0.0,,0.001,CHARGE,,,,,,,,,,,,,,,,,,,,,,1.75804e+09,,,,,,,,,,,,,,,,,,,,,,,,,,,,,,,,,,,,,,,
22722.391,task_3,CC,2,2,,,,4.04878,0.000237941,0.000963369,6.92267e-05,1.98155e-06,0.0,1.98155e-06,0.000265703,7.82911e-06,0.0,,0.001,CHARGE,,,,,,,,,,,,,,,,,,,,,,1.75804e+09,,,,,,,,,,,,,,,,,,,,,,,,,,,,,,,,,,,,,,,
22852.914,task_4,CC,2,2,,,,2.46579,-0.000237273,-0.000585065,7.38888e-05,0.0,1.97697e-06,1.97697e-06,0.000287905,0.0,5.19016e-06,,0.001,DISCHARGE,,,,,,,,,,,,,,,,,,,,,,1.75804e+09,,,,,,,,,,,,,,,,,,,,,,,,,,,,,,,,,,,,,,,
22984.891,task_3,CC,3,3,,,,4.18883,0.0002378,0.000996102,8.10267e-05,7.92602e-06,0.0,7.92602e-06,0.000318465,3.24766e-05,0.0,,0.001,CHARGE,,,,,,,,,,,,,,,,,,,,,,1.75804e+09,,,,,,,,,,,,,,,,,,,,,,,,,,,,,,,,,,,,,,,
23071.606,task_3,CC,4,4,,,,4.06052,0.000237776,0.000965494,8.12684e-05,1.98152e-06,0.0,1.98152e-06,0.000323431,7.84782e-06,0.0,,0.001,CHARGE,,,,,,,,,,,,,,,,,,,,,,1.75804e+09,,,,,,,,,,,,,,,,,,,,,,,,,,,,,,,,,,,,,,,
23248.535,task_3,CC,4,4,,,,4.20063,0.000237793,0.000998881,9.29544e-05,1.36675e-05,0.0,1.36675e-05,0.000371664,5.60802e-05,0.0,,0.001,CHARGE,,,,,,,,,,,,,,,,,,,,,,1.75804e+09,,,,,,,,,,,,,,,,,,,,,,,,,,,,,,,,,,,,,,,
23349.081,task_3,CC,5,5,,,,4.07146,0.000237748,0.000967981,9.42469e-05,3.963e-06,0.0,3.963e-06,0.000380553,1.57942e-05,0.0,,0.001,CHARGE,,,,,,,,,,,,,,,,,,,,,,1.75804e+09,,,,,,,,,,,,,,,,,,,,,,,,,,,,,,,,,,,,,,,
23508.757,task_3,CC,5,5,,,,4.20079,0.000237743,0.000998706,0.000104793,1.45094e-05,0.0,1.45094e-05,0.000424185,5.94257e-05,0.0,,0.001,CHARGE,,,,,,,,,,,,,,,,,,,,,,1.75804e+09,,,,,,,,,,,,,,,,,,,,,,,,,,,,,,,,,,,,,,,
23605.813,task_3,CC,6,6,,,,2.59874,0.000233285,0.000606247,9.8399e-05,6.48014e-11,0.0,6.48014e-11,0.000407664,1.68402e-10,0.0,,0.001,CHARGE,,,,,,,,,,,,,,,,,,,,,,1.75804e+09,,,,,,,,,,,,,,,,,,,,,,,,,,,,,,,,,,,,,,,
23785.813,task_3,CC,6,6,,,,3.94052,0.000237757,0.000936887,0.000110288,1.1889e-05,0.0,1.1889e-05,0.000454833,4.7169e-05,0.0,,0.001,CHARGE,,,,,,,,,,,,,,,,,,,,,,1.75804e+09,,,,,,,,,,,,,,,,,,,,,,,,,,,,,,,,,,,,,,,
23955.418,task_3,CC,6,6,,,,4.20069,0.000237628,0.000998203,0.00012149,2.30912e-05,0.0,2.30912e-05,0.000498875,9.12113e-05,0.0,,0.001,CHARGE,,,,,,,,,,,,,,,,,,,,,,1.75804e+09,,,,,,,,,,,,,,,,,,,,,,,,,,,,,,,,,,,,,,,
24048.484,task_3,CC,7,7,,,,3.95161,0.000237797,0.000939682,0.000119317,1.98149e-06,0.0,1.98149e-06,0.000495651,7.59105e-06,0.0,,0.001,CHARGE,,,,,,,,,,,,,,,,,,,,,,1.75804e+09,,,,,,,,,,,,,,,,,,,,,,,,,,,,,,,,,,,,,,,
24228.484,task_3,CC,7,7,,,,3.78719,0.000237852,0.000900793,0.000131206,1.38702e-05,0.0,1.38702e-05,0.000541184,5.31232e-05,0.0,,0.001,CHARGE,,,,,,,,,,,,,,,,,,,,,,1.75804e+09,,,,,,,,,,,,,,,,,,,,,,,,,,,,,,,,,,,,,,,
24408.484,task_3,CC,7,7,,,,3.70152,0.000237845,0.000880387,0.000143095,2.57591e-05,0.0,2.57591e-05,0.000587126,9.90655e-05,0.0,,0.001,CHARGE,,,,,,,,,,,,,,,,,,,,,,1.75804e+09,,,,,,,,,,,,,,,,,,,,,,,,,,,,,,,,,,,,,,,
24588.484,task_3,CC,7,7,,,,3.90535,0.000237663,0.000928157,0.000154983,3.76479e-05,0.0,3.76479e-05,0.000633458,0.000145397,0.0,,0.001,CHARGE,,,,,,,,,,,,,,,,,,,,,,1.75804e+09,,,,,,,,,,,,,,,,,,,,,,,,,,,,,,,,,,,,,,,
24768.484,task_3,CC,7,7,,,,3.94917,0.000237695,0.000938695,0.000166872,4.95368e-05,0.0,4.95368e-05,0.000680708,0.000192647,0.0,,0.001,CHARGE,,,,,,,,,,,,,,,,,,,,,,1.75804e+09,,,,,,,,,,,,,,,,,,,,,,,,,,,,,,,,,,,,,,,
24948.484,task_3,CC,7,7,,,,3.84576,0.000237683,0.00091407,0.000178761,6.14256e-05,0.0,6.14256e-05,0.000727157,0.000239097,0.0,,0.001,CHARGE,,,,,,,,,,,,,,,,,,,,,,1.75804e+09,,,,,,,,,,,,,,,,,,,,,,,,,,,,,,,,,,,,,,,
25081.229,task_4,CC,7,7,,,,4.48812,-0.000225564,-0.00101236,0.000187528,0.0,6.26567e-11,6.26567e-11,0.000761254,0.0,2.81211e-10,,0.001,DISCHARGE,,,,,,,,,,,,,,,,,,,,,,1.75804e+09,,,,,,,,,,,,,,,,,,,,,,,,,,,,,,,,,,,,,,,
25247.047,task_4,CC,7,7,,,,2.4,-0.00023722,-0.000569329,0.000176601,0.0,1.09273e-05,1.09273e-05,0.00073229,0.0,2.89639e-05,,0.001,DISCHARGE,,,,,,,,,,,,,,,,,,,,,,1.75804e+09,,,,,,,,,,,,,,,,,,,,,,,,,,,,,,,,,,,,,,,
25397.063,task_3,CC,8,8,,,,3.94162,0.00023774,0.000937078,0.000186508,9.90747e-06,0.0,9.90747e-06,0.000771556,3.92652e-05,0.0,,0.001,CHARGE,,,,,,,,,,,,,,,,,,,,,,1.75804e+09,,,,,,,,,,,,,,,,,,,,,,,,,,,,,,,,,,,,,,,
25577.063,task_3,CC,8,8,,,,4.01165,0.000237948,0.000954563,0.000198397,2.17964e-05,0.0,2.17964e-05,0.000818671,8.63807e-05,0.0,,0.001,CHARGE,,,,,,,,,,,,,,,,,,,,,,1.75804e+09,,,,,,,,,,,,,,,,,,,,,,,,,,,,,,,,,,,,,,,
25757.063,task_3,CC,8,8,,,,3.64096,0.000237934,0.000866308,0.000210286,3.36851e-05,0.0,3.36851e-05,0.000863595,0.000131305,0.0,,0.001,CHARGE,,,,,,,,,,,,,,,,,,,,,,1.75804e+09,,,,,,,,,,,,,,,,,,,,,,,,,,,,,,,,,,,,,,,
25937.063,task_3,CC,8,8,,,,3.84197,0.000237826,0.00091372,0.000222175,4.55737e-05,0.0,4.55737e-05,0.000907353,0.000175063,0.0,,0.001,CHARGE,,,,,,,,,,,,,,,,,,,,,,1.75804e+09,,,,,,,,,,,,,,,,,,,,,,,,,,,,,,,,,,,,,,,
26117.063,task_3,CC,8,8,,,,3.68829,0.000237833,0.000877196,0.000234063,5.74624e-05,0.0,5.74624e-05,0.000950912,0.000218621,0.0,,0.001,CHARGE,,,,,,,,,,,,,,,,,,,,,,1.75804e+09,,,,,,,,,,,,,,,,,,,,,,,,,,,,,,,,,,,,,,,
26297.063,task_3,CC,8,8,,,,3.74464,0.000237755,0.000890308,0.000245952,6.9351e-05,0.0,6.9351e-05,0.00099548,0.000263189,0.0,,0.001,CHARGE,,,,,,,,,,,,,,,,,,,,,,1.75804e+09,,,,,,,,,,,,,,,,,,,,,,,,,,,,,,,,,,,,,,,
26477.063,task_3,CC,8,8,,,,3.73432,0.000237665,0.000887518,0.000257841,8.12397e-05,0.0,8.12397e-05,0.00103978,0.000307494,0.0,,0.001,CHARGE,,,,,,,,,,,,,,,,,,,,,,1.75804e+09,,,,,,,,,,,,,,,,,,,,,,,,,,,,,,,,,,,,,,,
26657.063,task_3,CC,8,8,,,,3.77044,0.000237842,0.000896769,0.000269729,9.31283e-05,0.0,9.31283e-05,0.00108438,0.000352091,0.0,,0.001,CHARGE,,,,,,,,,,,,,,,,,,,,,,1.75804e+09,,,,,,,,,,,,,,,,,,,,,,,,,,,,,,,,,,,,,,,
26837.063,task_3,CC,8,8,,,,4.06736,0.000237596,0.000966388,0.000281618,0.000105017,0.0,0.000105017,0.00113028,0.000397991,0.0,,0.001,CHARGE,,,,,,,,,,,,,,,,,,,,,,1.75805e+09,,,,,,,,,,,,,,,,,,,,,,,,,,,,,,,,,,,,,,,
27017.063,task_3,CC,8,8,,,,3.82575,0.000237512,0.000908661,0.000293506,0.000116905,0.0,0.000116905,0.0011764,0.000444105,0.0,,0.001,CHARGE,,,,,,,,,,,,,,,,,,,,,,1.75805e+09,,,,,,,,,,,,,,,,,,,,,,,,,,,,,,,,,,,,,,,
27197.063,task_3,CC,8,8,,,,3.78241,0.00023771,0.000899116,0.000305395,0.000128794,0.0,0.000128794,0.00122131,0.000489015,0.0,,0.001,CHARGE,,,,,,,,,,,,,,,,,,,,,,1.75805e+09,,,,,,,,,,,,,,,,,,,,,,,,,,,,,,,,,,,,,,,
27377.063,task_3,CC,8,8,,,,3.78389,0.00023844,0.000902233,0.000317284,0.000140683,0.0,0.000140683,0.00126632,0.000534033,0.0,,0.001,CHARGE,,,,,,,,,,,,,,,,,,,,,,1.75805e+09,,,,,,,,,,,,,,,,,,,,,,,,,,,,,,,,,,,,,,,
27557.063,task_3,CC,8,8,,,,3.82291,0.000240383,0.000918964,0.000329173,0.000152572,0.0,0.000152572,0.00131138,0.000579089,0.0,,0.001,CHARGE,,,,,,,,,,,,,,,,,,,,,,1.75805e+09,,,,,,,,,,,,,,,,,,,,,,,,,,,,,,,,,,,,,,,
27737.063,task_3,CC,8,8,,,,3.8143,0.000237769,0.000906921,0.000341061,0.00016446,0.0,0.00016446,0.00135678,0.000624487,0.0,,0.001,CHARGE,,,,,,,,,,,,,,,,,,,,,,1.75805e+09,,,,,,,,,,,,,,,,,,,,,,,,,,,,,,,,,,,,,,,
27917.063,task_3,CC,8,8,,,,3.87338,0.000237837,0.000921235,0.00035295,0.000176349,0.0,0.000176349,0.00140223,0.000669937,0.0,,0.001,CHARGE,,,,,,,,,,,,,,,,,,,,,,1.75805e+09,,,,,,,,,,,,,,,,,,,,,,,,,,,,,,,,,,,,,,,
28097.063,task_3,CC,8,8,,,,3.84638,0.000238058,0.000915662,0.000364839,0.000188238,0.0,0.000188238,0.00144797,0.000715675,0.0,,0.001,CHARGE,,,,,,,,,,,,,,,,,,,,,,1.75805e+09,,,,,,,,,,,,,,,,,,,,,,,,,,,,,,,,,,,,,,,
28277.063,task_3,CC,8,8,,,,3.8127,0.000238193,0.000908159,0.000376727,0.000200126,0.0,0.000200126,0.0014938,0.000761506,0.0,,0.001,CHARGE,,,,,,,,,,,,,,,,,,,,,,1.75805e+09,,,,,,,,,,,,,,,,,,,,,,,,,,,,,,,,,,,,,,,
28457.063,task_3,CC,8,8,,,,3.8531,0.000237871,0.000916543,0.000388616,0.000212015,0.0,0.000212015,0.00153941,0.000807124,0.0,,0.001,CHARGE,,,,,,,,,,,,,,,,,,,,,,1.75805e+09,,,,,,,,,,,,,,,,,,,,,,,,,,,,,,,,,,,,,,,
28637.063,task_3,CC,8,8,,,,3.81918,0.000237742,0.000907978,0.000400505,0.000223904,0.0,0.000223904,0.00158515,0.000852861,0.0,,0.001,CHARGE,,,,,,,,,,,,,,,,,,,,,,1.75805e+09,,,,,,,,,,,,,,,,,,,,,,,,,,,,,,,,,,,,,,,
28817.063,task_3,CC,8,8,,,,3.78584,0.000237884,0.00090059,0.000412393,0.000235792,0.0,0.000235792,0.00163036,0.000898066,0.0,,0.001,CHARGE,,,,,,,,,,,,,,,,,,,,,,1.75805e+09,,,,,,,,,,,,,,,,,,,,,,,,,,,,,,,,,,,,,,,
28997.063,task_3,CC,8,8,,,,3.69163,0.000237762,0.000877729,0.000424282,0.000247681,0.0,0.000247681,0.00167511,0.000942818,0.0,,0.001,CHARGE,,,,,,,,,,,,,,,,,,,,,,1.75805e+09,,,,,,,,,,,,,,,,,,,,,,,,,,,,,,,,,,,,,,,
29177.063,task_3,CC,8,8,,,,3.61582,0.000237775,0.000859752,0.000436171,0.00025957,0.0,0.00025957,0.00171857,0.000986276,0.0,,0.001,CHARGE,,,,,,,,,,,,,,,,,,,,,,1.75805e+09,,,,,,,,,,,,,,,,,,,,,,,,,,,,,,,,,,,,,,,
29357.063,task_3,CC,8,8,,,,3.58814,0.000237665,0.000852777,0.00044806,0.000271459,0.0,0.000271459,0.00176112,0.00102883,0.0,,0.001,CHARGE,,,,,,,,,,,,,,,,,,,,,,1.75805e+09,,,,,,,,,,,,,,,,,,,,,,,,,,,,,,,,,,,,,,,
29537.063,task_3,CC,8,8,,,,3.60517,0.00023786,0.000857526,0.000459948,0.000283347,0.0,0.000283347,0.00180415,0.00107186,0.0,,0.001,CHARGE,,,,,,,,,,,,,,,,,,,,,,1.75805e+09,,,,,,,,,,,,,,,,,,,,,,,,,,,,,,,,,,,,,,,
29717.063,task_3,CC,8,8,,,,3.55661,0.000237848,0.000845935,0.000471837,0.000295236,0.0,0.000295236,0.00184718,0.00111489,0.0,,0.001,CHARGE,,,,,,,,,,,,,,,,,,,,,,1.75805e+09,,,,,,,,,,,,,,,,,,,,,,,,,,,,,,,,,,,,,,,
29897.063,task_3,CC,8,8,,,,3.65119,0.000237743,0.000868043,0.000483726,0.000307125,0.0,0.000307125,0.00189011,0.00115782,0.0,,0.001,CHARGE,,,,,,,,,,,,,,,,,,,,,,1.75805e+09,,,,,,,,,,,,,,,,,,,,,,,,,,,,,,,,,,,,,,,
30077.063,task_3,CC,8,8,,,,3.66139,0.000237759,0.000870528,0.000495614,0.000319013,0.0,0.000319013,0.00193349,0.0012012,0.0,,0.001,CHARGE,,,,,,,,,,,,,,,,,,,,,,1.75805e+09,,,,,,,,,,,,,,,,,,,,,,,,,,,,,,,,,,,,,,,
30257.063,task_3,CC,8,8,,,,3.75737,0.000237681,0.000893055,0.000507503,0.000330902,0.0,0.000330902,0.00197704,0.00124475,0.0,,0.001,CHARGE,,,,,,,,,,,,,,,,,,,,,,1.75805e+09,,,,,,,,,,,,,,,,,,,,,,,,,,,,,,,,,,,,,,,
30437.063,task_3,CC,8,8,,,,3.83249,0.000237866,0.000911619,0.000519392,0.000342791,0.0,0.000342791,0.00202194,0.00128965,0.0,,0.001,CHARGE,,,,,,,,,,,,,,,,,,,,,,1.75805e+09,,,,,,,,,,,,,,,,,,,,,,,,,,,,,,,,,,,,,,,
30617.063,task_3,CC,8,8,,,,3.7831,0.000237749,0.000899428,0.000531281,0.00035468,0.0,0.00035468,0.00206785,0.00133556,0.0,,0.001,CHARGE,,,,,,,,,,,,,,,,,,,,,,1.75805e+09,,,,,,,,,,,,,,,,,,,,,,,,,,,,,,,,,,,,,,,
30797.063,task_3,CC,8,8,,,,3.81949,0.000237831,0.000908394,0.000543169,0.000366568,0.0,0.000366568,0.00211341,0.00138112,0.0,,0.001,CHARGE,,,,,,,,,,,,,,,,,,,,,,1.75805e+09,,,,,,,,,,,,,,,,,,,,,,,,,,,,,,,,,,,,,,,
30977.063,task_3,CC,8,8,,,,3.72533,0.000237692,0.000885481,0.000555058,0.000378457,0.0,0.000378457,0.00215888,0.00142659,0.0,,0.001,CHARGE,,,,,,,,,,,,,,,,,,,,,,1.75805e+09,,,,,,,,,,,,,,,,,,,,,,,,,,,,,,,,,,,,,,,
31157.063,task_3,CC,8,8,,,,3.71189,0.000237731,0.00088243,0.000566947,0.000390346,0.0,0.000390346,0.00220301,0.00147072,0.0,,0.001,CHARGE,,,,,,,,,,,,,,,,,,,,,,1.75805e+09,,,,,,,,,,,,,,,,,,,,,,,,,,,,,,,,,,,,,,,
31337.063,task_3,CC,8,8,,,,3.78722,0.000237822,0.000900684,0.000578836,0.000402235,0.0,0.000402235,0.00224737,0.00151508,0.0,,0.001,CHARGE,,,,,,,,,,,,,,,,,,,,,,1.75805e+09,,,,,,,,,,,,,,,,,,,,,,,,,,,,,,,,,,,,,,,
31517.063,task_3,CC,8,8,,,,3.78029,0.000237741,0.000898731,0.000590724,0.000414123,0.0,0.000414123,0.00229289,0.0015606,0.0,,0.001,CHARGE,,,,,,,,,,,,,,,,,,,,,,1.75805e+09,,,,,,,,,,,,,,,,,,,,,,,,,,,,,,,,,,,,,,,
31697.063,task_3,CC,8,8,,,,3.72007,0.000237915,0.000885058,0.000602613,0.000426012,0.0,0.000426012,0.00233724,0.00160495,0.0,,0.001,CHARGE,,,,,,,,,,,,,,,,,,,,,,1.75805e+09,,,,,,,,,,,,,,,,,,,,,,,,,,,,,,,,,,,,,,,
31877.063,task_3,CC,8,8,,,,3.80201,0.00023783,0.000904234,0.000614502,0.000437901,0.0,0.000437901,0.00238117,0.00164888,0.0,,0.001,CHARGE,,,,,,,,,,,,,,,,,,,,,,1.75805e+09,,,,,,,,,,,,,,,,,,,,,,,,,,,,,,,,,,,,,,,
32057.063,task_3,CC,8,8,,,,3.6874,0.000237766,0.000876739,0.00062639,0.000449789,0.0,0.000449789,0.00242503,0.00169274,0.0,,0.001,CHARGE,,,,,,,,,,,,,,,,,,,,,,1.75805e+09,,,,,,,,,,,,,,,,,,,,,,,,,,,,,,,,,,,,,,,
32237.063,task_3,CC,8,8,,,,3.54712,0.000237718,0.000843215,0.000638279,0.000461678,0.0,0.000461678,0.00246939,0.0017371,0.0,,0.001,CHARGE,,,,,,,,,,,,,,,,,,,,,,1.75805e+09,,,,,,,,,,,,,,,,,,,,,,,,,,,,,,,,,,,,,,,
32417.063,task_3,CC,8,8,,,,3.44324,0.000237783,0.000818743,0.000650167,0.000473567,0.0,0.000473567,0.00251132,0.00177903,0.0,,0.001,CHARGE,,,,,,,,,,,,,,,,,,,,,,1.75805e+09,,,,,,,,,,,,,,,,,,,,,,,,,,,,,,,,,,,,,,,
32597.063,task_3,CC,8,8,,,,3.42537,0.000237847,0.000814713,0.000662056,0.000485455,0.0,0.000485455,0.00255214,0.00181985,0.0,,0.001,CHARGE,,,,,,,,,,,,,,,,,,,,,,1.75805e+09,,,,,,,,,,,,,,,,,,,,,,,,,,,,,,,,,,,,,,,
32777.063,task_3,CC,8,8,,,,3.70123,0.000237549,0.000879225,0.000673945,0.000497344,0.0,0.000497344,0.00259398,0.00186169,0.0,,0.001,CHARGE,,,,,,,,,,,,,,,,,,,,,,1.75805e+09,,,,,,,,,,,,,,,,,,,,,,,,,,,,,,,,,,,,,,,
32957.063,task_3,CC,8,8,,,,3.6449,0.000238708,0.000870068,0.000685833,0.000509232,0.0,0.000509232,0.00263779,0.0019055,0.0,,0.001,CHARGE,,,,,,,,,,,,,,,,,,,,,,1.75805e+09,,,,,,,,,,,,,,,,,,,,,,,,,,,,,,,,,,,,,,,
33137.063,task_3,CC,8,8,,,,3.52409,0.000238054,0.000838922,0.000697722,0.000521121,0.0,0.000521121,0.00268087,0.00194858,0.0,,0.001,CHARGE,,,,,,,,,,,,,,,,,,,,,,1.75805e+09,,,,,,,,,,,,,,,,,,,,,,,,,,,,,,,,,,,,,,,
33317.063,task_3,CC,8,8,,,,3.35943,0.000237842,0.000799015,0.000709611,0.00053301,0.0,0.00053301,0.0027219,0.00198961,0.0,,0.001,CHARGE,,,,,,,,,,,,,,,,,,,,,,1.75805e+09,,,,,,,,,,,,,,,,,,,,,,,,,,,,,,,,,,,,,,,
33497.063,task_3,CC,8,8,,,,3.40755,0.000237759,0.000810176,0.000721499,0.000544898,0.0,0.000544898,0.00276188,0.00202959,0.0,,0.001,CHARGE,,,,,,,,,,,,,,,,,,,,,,1.75805e+09,,,,,,,,,,,,,,,,,,,,,,,,,,,,,,,,,,,,,,,
33677.063,task_3,CC,8,8,,,,3.49814,0.000237849,0.00083203,0.000733388,0.000556787,0.0,0.000556787,0.00280389,0.0020716,0.0,,0.001,CHARGE,,,,,,,,,,,,,,,,,,,,,,1.75805e+09,,,,,,,,,,,,,,,,,,,,,,,,,,,,,,,,,,,,,,,
33857.063,task_3,CC,8,8,,,,3.54509,0.000237775,0.000842934,0.000745277,0.000568676,0.0,0.000568676,0.00284668,0.00211439,0.0,,0.001,CHARGE,,,,,,,,,,,,,,,,,,,,,,1.75805e+09,,,,,,,,,,,,,,,,,,,,,,,,,,,,,,,,,,,,,,,
34037.063,task_3,CC,8,8,,,,3.22876,0.000237856,0.000767982,0.000757166,0.000580565,0.0,0.000580565,0.0028857,0.00215341,0.0,,0.001,CHARGE,,,,,,,,,,,,,,,,,,,,,,1.75805e+09,,,,,,,,,,,,,,,,,,,,,,,,,,,,,,,,,,,,,,,
34217.063,task_3,CC,8,8,,,,3.10052,0.000237845,0.000737441,0.000769055,0.000592454,0.0,0.000592454,0.00292437,0.00219208,0.0,,0.001,CHARGE,,,,,,,,,,,,,,,,,,,,,,1.75805e+09,,,,,,,,,,,,,,,,,,,,,,,,,,,,,,,,,,,,,,,
34397.063,task_3,CC,8,8,,,,3.0096,0.000237749,0.000715529,0.000780944,0.000604343,0.0,0.000604343,0.00295984,0.00222755,0.0,,0.001,CHARGE,,,,,,,,,,,,,,,,,,,,,,1.75805e+09,,,,,,,,,,,,,,,,,,,,,,,,,,,,,,,,,,,,,,,
34577.063,task_3,CC,8,8,,,,2.99189,0.000237792,0.000711447,0.000792833,0.000616232,0.0,0.000616232,0.00299533,0.00226304,0.0,,0.001,CHARGE,,,,,,,,,,,,,,,,,,,,,,1.75805e+09,,,,,,,,,,,,,,,,,,,,,,,,,,,,,,,,,,,,,,,
34757.063,task_3,CC,8,8,,,,3.26884,0.000237764,0.000777214,0.000804722,0.000628121,0.0,0.000628121,0.00303166,0.00229936,0.0,,0.001,CHARGE,,,,,,,,,,,,,,,,,,,,,,1.75805e+09,,,,,,,,,,,,,,,,,,,,,,,,,,,,,,,,,,,,,,,
34937.063,task_3,CC,8,8,,,,3.22859,0.000237749,0.000767593,0.000816611,0.00064001,0.0,0.00064001,0.00306922,0.00233693,0.0,,0.001,CHARGE,,,,,,,,,,,,,,,,,,,,,,1.75805e+09,,,,,,,,,,,,,,,,,,,,,,,,,,,,,,,,,,,,,,,
35117.063,task_3,CC,8,8,,,,3.22336,0.000237821,0.000766581,0.0008285,0.000651899,0.0,0.000651899,0.00310733,0.00237504,0.0,,0.001,CHARGE,,,,,,,,,,,,,,,,,,,,,,1.75805e+09,,,,,,,,,,,,,,,,,,,,,,,,,,,,,,,,,,,,,,,
35297.063,task_3,CC,8,8,,,,3.40139,0.000237765,0.000808731,0.000840389,0.000663788,0.0,0.000663788,0.00314621,0.00241392,0.0,,0.001,CHARGE,,,,,,,,,,,,,,,,,,,,,,1.75805e+09,,,,,,,,,,,,,,,,,,,,,,,,,,,,,,,,,,,,,,,
35477.063,task_3,CC,8,8,,,,3.45883,0.000237795,0.000822491,0.000852278,0.000675677,0.0,0.000675677,0.00318789,0.0024556,0.0,,0.001,CHARGE,,,,,,,,,,,,,,,,,,,,,,1.75805e+09,,,,,,,,,,,,,,,,,,,,,,,,,,,,,,,,,,,,,,,
35657.063,task_3,CC,8,8,,,,3.20968,0.000237754,0.000763112,0.000864167,0.000687567,0.0,0.000687567,0.00322823,0.00249594,0.0,,0.001,CHARGE,,,,,,,,,,,,,,,,,,,,,,1.75805e+09,,,,,,,,,,,,,,,,,,,,,,,,,,,,,,,,,,,,,,,
35837.063,task_3,CC,8,8,,,,3.24053,0.000237766,0.000770487,0.000876057,0.000699456,0.0,0.000699456,0.00326674,0.00253445,0.0,,0.001,CHARGE,,,,,,,,,,,,,,,,,,,,,,1.75805e+09,,,,,,,,,,,,,,,,,,,,,,,,,,,,,,,,,,,,,,,
36017.063,task_3,CC,8,8,,,,3.422,0.00023777,0.00081365,0.000887946,0.000711345,0.0,0.000711345,0.00330603,0.00257374,0.0,,0.001,CHARGE,,,,,,,,,,,,,,,,,,,,,,1.75805e+09,,,,,,,,,,,,,,,,,,,,,,,,,,,,,,,,,,,,,,,
36197.063,task_3,CC,8,8,,,,3.56503,0.00023773,0.000847515,0.000899835,0.000723234,0.0,0.000723234,0.00334753,0.00261524,0.0,,0.001,CHARGE,,,,,,,,,,,,,,,,,,,,,,1.75805e+09,,,,,,,,,,,,,,,,,,,,,,,,,,,,,,,,,,,,,,,
36377.063,task_3,CC,8,8,,,,3.62339,0.000237836,0.000861773,0.000911724,0.000735123,0.0,0.000735123,0.00338772,0.00265543,0.0,,0.001,CHARGE,,,,,,,,,,,,,,,,,,,,,,1.75805e+09,,,,,,,,,,,,,,,,,,,,,,,,,,,,,,,,,,,,,,,
36557.063,task_3,CC,8,8,,,,3.86544,0.000237789,0.000919161,0.000923613,0.000747012,0.0,0.000747012,0.00343202,0.00269973,0.0,,0.001,CHARGE,,,,,,,,,,,,,,,,,,,,,,1.75805e+09,,,,,,,,,,,,,,,,,,,,,,,,,,,,,,,,,,,,,,,
36737.063,task_3,CC,8,8,,,,3.93079,0.00023774,0.000934506,0.000935502,0.000758901,0.0,0.000758901,0.00347838,0.00274609,0.0,,0.001,CHARGE,,,,,,,,,,,,,,,,,,,,,,1.75805e+09,,,,,,,,,,,,,,,,,,,,,,,,,,,,,,,,,,,,,,,
36917.063,task_3,CC,8,8,,,,3.9478,0.000237788,0.000938741,0.000947391,0.00077079,0.0,0.00077079,0.00352525,0.00279296,0.0,,0.001,CHARGE,,,,,,,,,,,,,,,,,,,,,,1.75806e+09,,,,,,,,,,,,,,,,,,,,,,,,,,,,,,,,,,,,,,,
37097.063,task_3,CC,8,8,,,,3.55903,0.000237765,0.000846212,0.00095928,0.000782679,0.0,0.000782679,0.00357072,0.00283843,0.0,,0.001,CHARGE,,,,,,,,,,,,,,,,,,,,,,1.75806e+09,,,,,,,,,,,,,,,,,,,,,,,,,,,,,,,,,,,,,,,
37277.063,task_3,CC,8,8,,,,3.59714,0.000237717,0.000855102,0.000971169,0.000794568,0.0,0.000794568,0.00361254,0.00288025,0.0,,0.001,CHARGE,,,,,,,,,,,,,,,,,,,,,,1.75806e+09,,,,,,,,,,,,,,,,,,,,,,,,,,,,,,,,,,,,,,,
37457.063,task_3,CC,8,8,,,,3.88461,0.000237859,0.000923988,0.000983058,0.000806457,0.0,0.000806457,0.00365634,0.00292405,0.0,,0.001,CHARGE,,,,,,,,,,,,,,,,,,,,,,1.75806e+09,,,,,,,,,,,,,,,,,,,,,,,,,,,,,,,,,,,,,,,
37637.063,task_3,CC,8,8,,,,3.69277,0.000238067,0.000879126,0.000994946,0.000818345,0.0,0.000818345,0.00370058,0.00296829,0.0,,0.001,CHARGE,,,,,,,,,,,,,,,,,,,,,,1.75806e+09,,,,,,,,,,,,,,,,,,,,,,,,,,,,,,,,,,,,,,,
37817.063,task_3,CC,8,8,,,,4.03909,0.000238075,0.000961606,0.00100684,0.000830234,0.0,0.000830234,0.00374597,0.00301368,0.0,,0.001,CHARGE,,,,,,,,,,,,,,,,,,,,,,1.75806e+09,,,,,,,,,,,,,,,,,,,,,,,,,,,,,,,,,,,,,,,
37997.063,task_3,CC,8,8,,,,3.8842,0.000237771,0.000923551,0.00101872,0.000842123,0.0,0.000842123,0.00379142,0.00305912,0.0,,0.001,CHARGE,,,,,,,,,,,,,,,,,,,,,,1.75806e+09,,,,,,,,,,,,,,,,,,,,,,,,,,,,,,,,,,,,,,,
38177.063,task_3,CC,8,8,,,,3.89968,0.000237814,0.000927398,0.00103061,0.000854013,0.0,0.000854013,0.00383752,0.00310523,0.0,,0.001,CHARGE,,,,,,,,,,,,,,,,,,,,,,1.75806e+09,,,,,,,,,,,,,,,,,,,,,,,,,,,,,,,,,,,,,,,
38357.063,task_3,CC,8,8,,,,3.93111,0.000237794,0.000934794,0.0010425,0.000865902,0.0,0.000865902,0.0038842,0.00315191,0.0,,0.001,CHARGE,,,,,,,,,,,,,,,,,,,,,,1.75806e+09,,,,,,,,,,,,,,,,,,,,,,,,,,,,,,,,,,,,,,,
38537.063,task_3,CC,8,8,,,,3.85714,0.00023788,0.000917537,0.00105439,0.000877791,0.0,0.000877791,0.00393041,0.00319812,0.0,,0.001,CHARGE,,,,,,,,,,,,,,,,,,,,,,1.75806e+09,,,,,,,,,,,,,,,,,,,,,,,,,,,,,,,,,,,,,,,
38717.063,task_3,CC,8,8,,,,4.01121,0.000237951,0.000954472,0.00106628,0.00088968,0.0,0.00088968,0.00397735,0.00324506,0.0,,0.001,CHARGE,,,,,,,,,,,,,,,,,,,,,,1.75806e+09,,,,,,,,,,,,,,,,,,,,,,,,,,,,,,,,,,,,,,,
38897.063,task_3,CC,8,8,,,,3.91992,0.000237704,0.00093178,0.00107817,0.000901569,0.0,0.000901569,0.00402424,0.00329194,0.0,,0.001,CHARGE,,,,,,,,,,,,,,,,,,,,,,1.75806e+09,,,,,,,,,,,,,,,,,,,,,,,,,,,,,,,,,,,,,,,
39077.063,task_3,CC,8,8,,,,3.73392,0.000237864,0.000888165,0.00109006,0.000913458,0.0,0.000913458,0.00407008,0.00333779,0.0,,0.001,CHARGE,,,,,,,,,,,,,,,,,,,,,,1.75806e+09,,,,,,,,,,,,,,,,,,,,,,,,,,,,,,,,,,,,,,,
39257.063,task_3,CC,8,8,,,,3.80923,0.00023786,0.000906065,0.00110195,0.000925347,0.0,0.000925347,0.00411405,0.00338176,0.0,,0.001,CHARGE,,,,,,,,,,,,,,,,,,,,,,1.75806e+09,,,,,,,,,,,,,,,,,,,,,,,,,,,,,,,,,,,,,,,
39437.063,task_3,CC,8,8,,,,3.83152,0.000237639,0.000910516,0.00111384,0.000937236,0.0,0.000937236,0.00415954,0.00342725,0.0,,0.001,CHARGE,,,,,,,,,,,,,,,,,,,,,,1.75806e+09,,,,,,,,,,,,,,,,,,,,,,,,,,,,,,,,,,,,,,,
39617.063,task_3,CC,8,8,,,,3.85032,0.000237747,0.000915404,0.00112573,0.000949125,0.0,0.000949125,0.00420534,0.00347305,0.0,,0.001,CHARGE,,,,,,,,,,,,,,,,,,,,,,1.75806e+09,,,,,,,,,,,,,,,,,,,,,,,,,,,,,,,,,,,,,,,
39797.063,task_3,CC,8,8,,,,3.78169,0.000237736,0.000899041,0.00113762,0.000961014,0.0,0.000961014,0.00424948,0.00351719,0.0,,0.001,CHARGE,,,,,,,,,,,,,,,,,,,,,,1.75806e+09,,,,,,,,,,,,,,,,,,,,,,,,,,,,,,,,,,,,,,,
39977.063,task_3,CC,8,8,,,,3.75534,0.00023779,0.000892983,0.0011495,0.000972903,0.0,0.000972903,0.00429476,0.00356247,0.0,,0.001,CHARGE,,,,,,,,,,,,,,,,,,,,,,1.75806e+09,,,,,,,,,,,,,,,,,,,,,,,,,,,,,,,,,,,,,,,
40157.063,task_3,CC,8,8,,,,3.71194,0.00023779,0.000882662,0.00116139,0.000984792,0.0,0.000984792,0.00433825,0.00360596,0.0,,0.001,CHARGE,,,,,,,,,,,,,,,,,,,,,,1.75806e+09,,,,,,,,,,,,,,,,,,,,,,,,,,,,,,,,,,,,,,,
40337.063,task_3,CC,8,8,,,,3.87394,0.00023784,0.000921378,0.00117328,0.000996682,0.0,0.000996682,0.00438335,0.00365106,0.0,,0.001,CHARGE,,,,,,,,,,,,,,,,,,,,,,1.75806e+09,,,,,,,,,,,,,,,,,,,,,,,,,,,,,,,,,,,,,,,
40477.167,task_4,CC,8,8,,,,2.70042,-0.000237245,-0.000640662,0.0011667,0.0,7.90766e-06,7.90766e-06,0.00436653,0.0,2.23331e-05,,0.001,DISCHARGE,,,,,,,,,,,,,,,,,,,,,,1.75806e+09,,,,,,,,,,,,,,,,,,,,,,,,,,,,,,,,,,,,,,,
40616.566,task_3,CC,9,9,,,,4.08814,0.000237759,0.000971994,0.00116148,1.98161e-06,0.0,1.98161e-06,0.0043559,7.91139e-06,0.0,,0.001,CHARGE,,,,,,,,,,,,,,,,,,,,,,1.75806e+09,,,,,,,,,,,,,,,,,,,,,,,,,,,,,,,,,,,,,,,
40766.631,task_3,CC,9,9,,,,4.20082,0.000237815,0.00099902,0.00117139,1.18936e-05,0.0,1.18936e-05,0.00439571,4.77181e-05,0.0,,0.001,CHARGE,,,,,,,,,,,,,,,,,,,,,,1.75806e+09,,,,,,,,,,,,,,,,,,,,,,,,,,,,,,,,,,,,,,,
40916.638,task_4,CC,9,9,,,,2.54679,-0.000237253,-0.000604232,0.0011615,0.0,9.88471e-06,9.88471e-06,0.00436905,0.0,2.66581e-05,,0.001,DISCHARGE,,,,,,,,,,,,,,,,,,,,,,1.75806e+09,,,,,,,,,,,,,,,,,,,,,,,,,,,,,,,,,,,,,,,
41040.767,task_3,CC,10,10,,,,4.10127,0.000237791,0.000975246,0.00116124,3.96313e-06,0.0,3.96313e-06,0.00437459,1.60658e-05,0.0,,0.001,CHARGE,,,,,,,,,,,,,,,,,,,,,,1.75806e+09,,,,,,,,,,,,,,,,,,,,,,,,,,,,,,,,,,,,,,,
41185.178,task_4,CC,10,10,,,,2.656,-0.00023722,-0.000630056,0.0011589,0.0,5.93082e-06,5.93082e-06,0.00437288,0.0,1.65399e-05,,0.001,DISCHARGE,,,,,,,,,,,,,,,,,,,,,,1.75806e+09,,,,,,,,,,,,,,,,,,,,,,,,,,,,,,,,,,,,,,,
41288.045,task_6,CC,11,,1,,,4.25838,0.00234969,0.0100059,0.00115215,1.93857e-08,0.0,1.93857e-08,0.00435576,7.17392e-08,0.0,,0.01,CHARGE,,,,,,,,,,,,,,,,,,,,,,1.75806e+09,,,,,,,,,,,,,,,,,,,,,,,,,,,,,,,,,,,,,,,
41288.135,task_7,CC,12,,2,,,2.31631,-0.00234557,-0.00543308,0.00115214,0.0,1.27793e-08,1.27793e-08,0.00435574,0.0,3.69541e-08,,0.01,DISCHARGE,,,,,,,,,,,,,,,,,,,,,,1.75806e+09,,,,,,,,,,,,,,,,,,,,,,,,,,,,,,,,,,,,,,,
41288.231,task_6,CC,14,,4,,,4.3114,0.00234185,0.0100966,0.00115215,1.27844e-08,0.0,1.27844e-08,0.0043558,4.71123e-08,0.0,,0.01,CHARGE,,,,,,,,,,,,,,,,,,,,,,1.75806e+09,,,,,,,,,,,,,,,,,,,,,,,,,,,,,,,,,,,,,,,
41288.32,task_7,CC,15,,5,,,2.30823,-0.0023474,-0.00541834,0.00115214,0.0,1.27769e-08,1.27769e-08,0.00435578,0.0,3.65369e-08,,0.01,DISCHARGE,,,,,,,,,,,,,,,,,,,,,,1.75806e+09,,,,,,,,,,,,,,,,,,,,,,,,,,,,,,,,,,,,,,,
41288.415,task_6,CC,17,,7,,,4.34301,0.00233764,0.0101524,0.00115215,1.21203e-08,0.0,1.21203e-08,0.00435584,4.47484e-08,0.0,,0.01,CHARGE,,,,,,,,,,,,,,,,,,,,,,1.75806e+09,,,,,,,,,,,,,,,,,,,,,,,,,,,,,,,,,,,,,,,
41288.501,task_7,CC,18,,8,,,2.30926,-0.00234795,-0.00542203,0.00115214,0.0,1.27727e-08,1.27727e-08,0.00435581,0.0,3.65649e-08,,0.01,DISCHARGE,,,,,,,,,,,,,,,,,,,,,,1.75806e+09,,,,,,,,,,,,,,,,,,,,,,,,,,,,,,,,,,,,,,,
41288.593,task_6,CC,20,,10,,,4.31393,0.00233712,0.0100822,0.00115215,1.21143e-08,0.0,1.21143e-08,0.00435587,4.43999e-08,0.0,,0.01,CHARGE,,,,,,,,,,,,,,,,,,,,,,1.75806e+09,,,,,,,,,,,,,,,,,,,,,,,,,,,,,,,,,,,,,,,
41288.654,task_10,CC,21,,,1,,2.03771,-0.0046743,-0.00952485,0.00115214,0.0,8.84302e-09,8.84302e-09,0.00435585,0.0,2.34895e-08,,0.01,DISCHARGE,,,,,,,,,,,,,,,,,,,,,,1.75806e+09,,,,,,,,,,,,,,,,,,,,,,,,,,,,,,,,,,,,,,,
41288.711,task_9,CC,23,,,3,,4.63445,0.00463198,0.0214667,0.00115215,8.80182e-09,0.0,8.80182e-09,0.00435589,3.46883e-08,0.0,,0.01,CHARGE,,,,,,,,,,,,,,,,,,,,,,1.75806e+09,,,,,,,,,,,,,,,,,,,,,,,,,,,,,,,,,,,,,,,
41288.759,task_10,CC,24,,,4,,2.05919,-0.00467627,-0.00962934,0.00115214,0.0,8.84651e-09,8.84651e-09,0.00435588,0.0,2.36343e-08,,0.01,DISCHARGE,,,,,,,,,,,,,,,,,,,,,,1.75806e+09,,,,,,,,,,,,,,,,,,,,,,,,,,,,,,,,,,,,,,,
41288.816,task_9,CC,26,,,6,,4.60942,0.00462935,0.0213386,0.00115215,8.8e-09,0.0,8.8e-09,0.00435593,3.43905e-08,0.0,,0.01,CHARGE,,,,,,,,,,,,,,,,,,,,,,1.75806e+09,,,,,,,,,,,,,,,,,,,,,,,,,,,,,,,,,,,,,,,
41288.864,task_10,CC,27,,,7,,2.11775,-0.00467658,-0.0099038,0.00115214,0.0,8.84609e-09,8.84609e-09,0.00435591,0.0,2.41014e-08,,0.01,DISCHARGE,,,,,,,,,,,,,,,,,,,,,,1.75806e+09,,,,,,,,,,,,,,,,,,,,,,,,,,,,,,,,,,,,,,,
41288.923,task_9,CC,29,,,9,,4.66964,0.00463775,0.0216566,0.00115215,1.00988e-08,0.0,1.00988e-08,0.00435596,3.98681e-08,0.0,,0.01,CHARGE,,,,,,,,,,,,,,,,,,,,,,1.75806e+09,,,,,,,,,,,,,,,,,,,,,,,,,,,,,,,,,,,,,,,
41288.972,task_10,CC,30,,,10,,2.04027,-0.00468295,-0.00955448,0.00115214,0.0,1.01454e-08,1.01454e-08,0.00435594,0.0,2.69945e-08,,0.01,DISCHARGE,,,,,,,,,,,,,,,,,,,,,,1.75806e+09,,,,,,,,,,,,,,,,,,,,,,,,,,,,,,,,,,,,,,,
23000.02,task_3,CC,3,3,,,,,,,,,,,,,,,,CHARGE,,,,,,,,,,,,,,,,,,,,,,1758041198.02,135.129,2.623,4.20001,4.10817,2.623,4.2,0.000233087,0.000238393,0.000237779,0.000233087,0.000237843,8.92524e-06,8.92524e-06,0.0,3.66665e-05,3.66665e-05,0.0,0.000611388,0.000999642,,,,,,,,,,,,,,,,,,,,
23955.419,task_3,CC,6,6,,,,,,,,,,,,,,,,CHARGE,,,,,,,,,,,,,,,,,,,,,,1758042153.419,349.606,2.59874,4.20069,3.95005,2.59874,4.20069,0.000233285,0.000238659,0.000237777,0.000233285,0.000237628,2.30912e-05,2.30912e-05,0.0,9.12113e-05,9.12113e-05,0.0,0.000606247,0.000999208,,,,,,,,,,,,,,,,,,,,
40766.632,task_3,CC,9,9,,,,,,,,,,,,,,,,CHARGE,,,,,,,,,,,,,,,,,,,,,,1758058964.632,180.066,2.47854,4.20082,4.01208,2.47854,4.20082,0.000233894,0.000237868,0.000237785,0.000233894,0.000237815,1.18936e-05,1.18936e-05,0.0,4.77181e-05,4.77181e-05,0.0,0.000579714,0.00099902,,,,,,,,,,,,,,,,,,,,
41288.11,task_6,CC,12,,2,,,,,,,,,,,,,,,CHARGE,,,,,,,,,,,,,,,,,,,,,,1758059486.11,0.023,2.41055,4.32659,3.6682,2.41055,4.32659,0.00192183,0.00234824,0.00230978,0.00192183,0.00234824,1.47569e-08,1.47569e-08,0.0,5.43454e-08,5.43454e-08,0.0,0.00463267,0.0101599,,,,,,,,,,,,,,,,,,,,
41288.295,task_6,CC,15,,5,,,,,,,,,,,,,,,CHARGE,,,,,,,,,,,,,,,,,,,,,,1758059486.295,0.022,2.4195,4.33886,3.66796,2.4195,4.33886,0.00192207,0.00234302,0.00230488,0.00192207,0.00234302,1.40854e-08,1.40854e-08,0.0,5.18701e-08,5.18701e-08,0.0,0.00465043,0.010166,,,,,,,,,,,,,,,,,,,,
41288.476,task_6,CC,18,,8,,,,,,,,,,,,,,,CHARGE,,,,,,,,,,,,,,,,,,,,,,1758059486.476,0.02,2.50126,4.3557,3.68006,2.50126,4.3557,0.00192305,0.0023383,0.00229874,0.00192305,0.0023383,1.27708e-08,1.27708e-08,0.0,4.71844e-08,4.71844e-08,0.0,0.00481004,0.0101849,,,,,,,,,,,,,,,,,,,,
41288.642,task_9,CC,21,,,1,,,,,,,,,,,,,,CHARGE,,,,,,,,,,,,,,,,,,,,,,1758059486.642,0.008,2.6663,4.65855,3.90928,2.6663,4.65855,0.00399754,0.00480526,0.00454815,0.00399754,0.00480526,1.0107e-08,1.0107e-08,0.0,3.97965e-08,3.97965e-08,0.0,0.0106586,0.0223855,,,,,,,,,,,,,,,,,,,,
41288.747,task_9,CC,24,,,4,,,,,,,,,,,,,,CHARGE,,,,,,,,,,,,,,,,,,,,,,1758059486.747,0.007,2.77659,4.60697,3.90417,2.77659,4.60697,0.00413938,0.00463228,0.00452671,0.00413938,0.00463228,8.80193e-09,8.80193e-09,0.0,3.45324e-08,3.45324e-08,0.0,0.0114934,0.0213408,,,,,,,,,,,,,,,,,,,,
41288.852,task_9,CC,27,,,7,,,,,,,,,,,,,,CHARGE,,,,,,,,,,,,,,,,,,,,,,1758059486.852,0.007,2.78469,4.63705,3.91012,2.78469,4.63705,0.00414173,0.00463042,0.00452516,0.00414173,0.00463042,8.79893e-09,8.79893e-09,0.0,3.45726e-08,3.45726e-08,0.0,0.0115334,0.0214715,,,,,,,,,,,,,,,,,,,,
41288.959,task_9,CC,30,,,10,,,,,,,,,,,,,,CHARGE,,,,,,,,,,,,,,,,,,,,,,1758059486.959,0.007,2.79291,4.69718,3.96273,2.79291,4.69718,0.00413985,0.00462933,0.00452347,0.00413985,0.00462933,8.79563e-09,8.79563e-09,0.0,3.50286e-08,3.50286e-08,0.0,0.0115622,0.0217448,,,,,,,,,,,,,,,,,,,,
23605.801,task_2,LOOP,5,5,,,,,,,,,,,,,,,,,,,,,,,,,,,,,,,,,,,,,,1758041803.801,,,,,,,,,,,,,,,,,,,,,,5,1,5.0,316.711,8.11501e-06,1.45094e-05,6.3944e-06,4.29046e-05,5.94257e-05,1.65212e-05,,,,,,,,
41288.075,task_5,LOOP,11,,1,,,,,,,,,,,,,,,,,,,,,,,,,,,,,,,,,,,,,1758059486.075,,,,,,,,,,,,,,,,,,,,,,1,2,1.0,0.05,6.60551e-09,1.93857e-08,1.27802e-08,3.50758e-08,7.17392e-08,3.66634e-08,,,,,,,,
41288.444,task_5,LOOP,17,,7,,,,,,,,,,,,,,,,,,,,,,,,,,,,,,,,,,,,,1758059486.444,,,,,,,,,,,,,,,,,,,,,,7,2,7.0,0.038,-3.24589e-12,1.21203e-08,1.21235e-08,1.00833e-08,4.47484e-08,3.46652e-08,,,,,,,,
41288.728,task_8,LOOP,23,,,3,,,,,,,,,,,,,,,,,,,,,,,,,,,,,,,,,,,,1758059486.728,,,,,,,,,,,,,,,,,,,,,,3,3,3.0,0.014,-4.52282e-11,8.80182e-09,8.84704e-09,1.07192e-08,3.46883e-08,2.3969e-08,,,,,,,,
41288.94,task_8,LOOP,29,,,9,,,,,,,,,,,,,,,,,,,,,,,,,,,,,,,,,,,,1758059486.94,,,,,,,,,,,,,,,,,,,,,,9,3,9.0,0.015,1.25375e-09,1.00988e-08,8.84509e-09,1.57228e-08,3.98681e-08,2.41453e-08,,,,,,,,
23605.801,,,5,,,,,,,,,,,,,,,,,,,,,,,,,,,,,,,,,,,,,,,1758041803.801,,,,,,,,,,,,,,,,,,,,,,,,,,,,,,,,316.72,8.11501e-06,1.45094e-05,6.3944e-06,0.440707,4.29046e-05,5.94257e-05,1.65212e-05
41288.075,,,11,,,,,,,,,,,,,,,,,,,,,,,,,,,,,,,,,,,,,,,1758059486.075,,,,,,,,,,,,,,,,,,,,,,,,,,,,,,,,0.059,6.60551e-09,1.93857e-08,1.27802e-08,0.659258,3.50758e-08,7.17392e-08,3.66634e-08
41288.444,,,17,,,,,,,,,,,,,,,,,,,,,,,,,,,,,,,,,,,,,,,1758059486.444,,,,,,,,,,,,,,,,,,,,,,,,,,,,,,,,0.047,-3.24589e-12,1.21203e-08,1.21235e-08,1.00027,1.00833e-08,4.47484e-08,3.46652e-08
41288.728,,,23,,,,,,,,,,,,,,,,,,,,,,,,,,,,,,,,,,,,,,,1758059486.728,,,,,,,,,,,,,,,,,,,,,,,,,,,,,,,,0.023,-4.52282e-11,8.80182e-09,8.84704e-09,1.00514,1.07192e-08,3.46883e-08,2.3969e-08
41288.94,,,29,,,,,,,,,,,,,,,,,,,,,,,,,,,,,,,,,,,,,,,1758059486.94,,,,,,,,,,,,,,,,,,,,,,,,,,,,,,,,0.024,1.25375e-09,1.00988e-08,8.84509e-09,0.875852,1.57228e-08,3.98681e-08,2.41453e-08
41288.976,,,30,,,,,,,,,,,,,,,,,,,,,,,,,,,,,,,,,,,,,,,1758059486.976,,,,,,,,,,,,,,,,,,,,,,,,,,,,,,,,0.024,-1.34975e-09,8.79563e-09,1.01454e-08,1.15346,8.03412e-09,3.50286e-08,2.69945e-08