File: CoinCells/2025-09-26_09-06-51_Practical Course EC2 SoSe25_EC2_Group3_FZ_A.6.csv
Header line count: 79
Export version: 3.12
User:
 - name: Labor Labor
 - login: Labor
 - email: N/A

Project:
 - name: Practical Course EC2 SoSe25
 - tags: N/A
 - creator: Labor Labor

Test Plan:
 - name: CoinCell_Cycling_SoSe25
 - tags: N/A
 - creator: Labor Labor
 - tasks:
Step,Type,Control Parameters,Limits,Record Conditions
1,REST,,TIME > 6.0000h then NEXT_STEP,DELTA_TIME = 30.000s
2,LOOP,LOOP_ID: LOOP_1 LOOP_MODE: COUNTER COUNTER: 1 ,COUNTER > 10 then NEXT_STEP,
3,CC,I: 237.50µA I_RANGE_MODE: FIX I_RANGE: 1.0000mA,TIME > 12.000h then NEXT_STEP U > 4.2000V then NEXT_STEP,DELTA_TIME = 30.000s
4,CC,I: -237.50µA I_RANGE_MODE: FIX I_RANGE: 1.0000mA,TIME > 12.000h then NEXT_STEP U < 2.4000V then NEXT_STEP,DELTA_TIME = 30.000s
N/A,LOOP,END LOOP_ID : LOOP_1,
5,LOOP,LOOP_ID: LOOP_2 LOOP_MODE: COUNTER COUNTER: 1 ,COUNTER > 10 then NEXT_STEP,
6,CC,I: 2375.0µA I_RANGE_MODE: FIX I_RANGE: 10.000mA,TIME > 2.0000h then NEXT_STEP U > 4.2000V then NEXT_STEP,DELTA_TIME = 10.000s
7,CC,I: -2375.0µA I_RANGE_MODE: FIX I_RANGE: 10.000mA,TIME > 2.0000h then NEXT_STEP U < 2.4000V then NEXT_STEP,DELTA_TIME = 10.000s
N/A,LOOP,END LOOP_ID : LOOP_2,
8,LOOP,LOOP_ID: LOOP_3 LOOP_MODE: COUNTER COUNTER: 1 ,COUNTER > 10 then NEXT_STEP,
9,CC,I: 4750.0µA I_RANGE_MODE: FIX I_RANGE: 10.000mA,TIME > 1.0000h then NEXT_STEP U > 4.2000V then NEXT_STEP,DELTA_TIME = 5.0000s
10,CC,I: -4750.0µA I_RANGE_MODE: FIX I_RANGE: 10.000mA,TIME > 1.0000h then NEXT_STEP U < 2.4000V then NEXT_STEP,DELTA_TIME = 5.0000s
N/A,LOOP,END LOOP_ID : LOOP_3,
 - no user variable
 - safety limits (after a time of 10.000ms):
  - U > 4.7000V then SAFETY_STOP

DUT Type:
 - name: Default Device Under Test
 - electrolyte: N/A
 - electrode material: N/A
 - description: N/A
 - tags: N/A
 - nominal capacity: N/A
 - maximum voltage: N/A
 - nominal voltage: N/A
 - minimum voltage: N/A
 - nominal energy: N/A
 - maximum discharge current: N/A
 - maximum charge current: N/A
 - mass: N/A
 - volume: N/A
 - surface area: N/A
 - characteristic mass: N/A
 - mass of active material: N/A
 - x: N/A
 - Molecular weight of active material at x=0: N/A
 - Acquisition started at x0=: N/A
 - Intercalated ion molecular weight of active material at x=0: N/A
 - Number of electrons transferred per intercalated ions: N/A

Test Run:
  - name: EC2_Group3_FZ
  - tags: N/A
  - creator: Labor Labor
  - batch number: N/A
  - started on: 2025-09-16 10:22:58.1818
  - finished on: 2025-09-16 19:54:16.2813

Dut Run:
  - DUT Name: N/A
  - Comment: N/A

Instrument:
  - channel: A.6
  - model: BCS-905
  - serial number: 0729

System version: 3.0.0-9
System address: 10.128.128.50

Time /s,Step,Task,Cycle number,Loop 1 number,Loop 2 number,Loop 3 number,Loop 4 number,U /V,I /A,P /W,Q /Ah,Q charge /Ah,Q discharge /Ah,Capacity /Ah,Energy /Wh,Energy charge /Wh,Energy discharge /Wh,Temperature /CelsiusDegrees,I Range /A,Phase,Frequency /Hz,Ua /V,Ia /A,Impedance module /Ohms,Impedance phase /rad,Real impedance /Ohms,- Imaginary impedance /Ohms,Admittance module /Ohms,Admittance phase /rad,Real admittance /Ohms,Imaginary admittance /Ohms,@Var1,@Var2,@Var3,@Var4,@Var5,@Var6,@Var7,@Var8,@Var9,@Var10,Date Time /ns,Duration (step) /s,Umin (step) /V,Umax (step) /V,Umean (step) /V,Ubegin (step) /V,Uend (step) /V,Imin (step) /A,Imax (step) /A,Imean (step) /A,Ibegin (step) /A,Iend (step) /A,Q (step) /Ah,Q charge (step) /Ah,Q discharge (step) /Ah,Energy (step) /Wh,Energy charge (step) /Wh,Energy discharge (step) /Wh,Pmin (step) /W,Pmax (step) /W,Rdc (step) /Ohms,Rac (step) /Ohms,Counter value (loop),Loop ID (loop),List value (loop),Duration (loop) /s,Q (loop) /Ah,Q charge (loop) /Ah,Q discharge (loop) /Ah,Energy (loop) /Wh,Energy charge (loop) /Wh,Energy discharge (loop) /Wh,Duration (cycle) /s,Q (cycle) /Ah,Q charge (cycle) /Ah,Q discharge (cycle) /Ah,Efficiency (cycle) /none,Energy (cycle) /Wh,Energy charge (cycle) /Wh,Energy discharge (cycle) /Wh
0.005,task_1,REST,,,,,,0.372362,0.0,0.0,0.0,0.0,0.0,0.0,0.0,0.0,0.0,,,,,,,,,,,,,,,,,,,,,,,,,1.75802e+09,,,,,,,,,,,,,,,,,,,,,,,,,,,,,,,,,,,,,,,
150.005,task_1,REST,,,,,,0.374001,0.0,0.0,0.0,0.0,0.0,0.0,0.0,0.0,0.0,,,,,,,,,,,,,,,,,,,,,,,,,1.75802e+09,,,,,,,,,,,,,,,,,,,,,,,,,,,,,,,,,,,,,,,
300.005,task_1,REST,,,,,,0.374905,0.0,0.0,0.0,0.0,0.0,0.0,0.0,0.0,0.0,,,,,,,,,,,,,,,,,,,,,,,,,1.75802e+09,,,,,,,,,,,,,,,,,,,,,,,,,,,,,,,,,,,,,,,
450.005,task_1,REST,,,,,,0.375487,0.0,0.0,0.0,0.0,0.0,0.0,0.0,0.0,0.0,,,,,,,,,,,,,,,,,,,,,,,,,1.75802e+09,,,,,,,,,,,,,,,,,,,,,,,,,,,,,,,,,,,,,,,
600.005,task_1,REST,,,,,,0.376117,0.0,0.0,0.0,0.0,0.0,0.0,0.0,0.0,0.0,,,,,,,,,,,,,,,,,,,,,,,,,1.75802e+09,,,,,,,,,,,,,,,,,,,,,,,,,,,,,,,,,,,,,,,
750.005,task_1,REST,,,,,,0.376719,0.0,0.0,0.0,0.0,0.0,0.0,0.0,0.0,0.0,,,,,,,,,,,,,,,,,,,,,,,,,1.75802e+09,,,,,,,,,,,,,,,,,,,,,,,,,,,,,,,,,,,,,,,
900.005,task_1,REST,,,,,,0.377426,0.0,0.0,0.0,0.0,0.0,0.0,0.0,0.0,0.0,,,,,,,,,,,,,,,,,,,,,,,,,1.75802e+09,,,,,,,,,,,,,,,,,,,,,,,,,,,,,,,,,,,,,,,
1050.005,task_1,REST,,,,,,0.377999,0.0,0.0,0.0,0.0,0.0,0.0,0.0,0.0,0.0,,,,,,,,,,,,,,,,,,,,,,,,,1.75802e+09,,,,,,,,,,,,,,,,,,,,,,,,,,,,,,,,,,,,,,,
1200.005,task_1,REST,,,,,,0.378789,0.0,0.0,0.0,0.0,0.0,0.0,0.0,0.0,0.0,,,,,,,,,,,,,,,,,,,,,,,,,1.75802e+09,,,,,,,,,,,,,,,,,,,,,,,,,,,,,,,,,,,,,,,
1350.005,task_1,REST,,,,,,0.379848,0.0,0.0,0.0,0.0,0.0,0.0,0.0,0.0,0.0,,,,,,,,,,,,,,,,,,,,,,,,,1.75802e+09,,,,,,,,,,,,,,,,,,,,,,,,,,,,,,,,,,,,,,,
1500.005,task_1,REST,,,,,,0.381108,0.0,0.0,0.0,0.0,0.0,0.0,0.0,0.0,0.0,,,,,,,,,,,,,,,,,,,,,,,,,1.75802e+09,,,,,,,,,,,,,,,,,,,,,,,,,,,,,,,,,,,,,,,
1650.005,task_1,REST,,,,,,0.383982,0.0,0.0,0.0,0.0,0.0,0.0,0.0,0.0,0.0,,,,,,,,,,,,,,,,,,,,,,,,,1.75802e+09,,,,,,,,,,,,,,,,,,,,,,,,,,,,,,,,,,,,,,,
1800.005,task_1,REST,,,,,,0.385544,0.0,0.0,0.0,0.0,0.0,0.0,0.0,0.0,0.0,,,,,,,,,,,,,,,,,,,,,,,,,1.75802e+09,,,,,,,,,,,,,,,,,,,,,,,,,,,,,,,,,,,,,,,
1950.005,task_1,REST,,,,,,0.386517,0.0,0.0,0.0,0.0,0.0,0.0,0.0,0.0,0.0,,,,,,,,,,,,,,,,,,,,,,,,,1.75802e+09,,,,,,,,,,,,,,,,,,,,,,,,,,,,,,,,,,,,,,,
2100.005,task_1,REST,,,,,,0.387328,0.0,0.0,0.0,0.0,0.0,0.0,0.0,0.0,0.0,,,,,,,,,,,,,,,,,,,,,,,,,1.75802e+09,,,,,,,,,,,,,,,,,,,,,,,,,,,,,,,,,,,,,,,
2250.005,task_1,REST,,,,,,0.387913,0.0,0.0,0.0,0.0,0.0,0.0,0.0,0.0,0.0,,,,,,,,,,,,,,,,,,,,,,,,,1.75802e+09,,,,,,,,,,,,,,,,,,,,,,,,,,,,,,,,,,,,,,,
2400.005,task_1,REST,,,,,,0.388511,0.0,0.0,0.0,0.0,0.0,0.0,0.0,0.0,0.0,,,,,,,,,,,,,,,,,,,,,,,,,1.75802e+09,,,,,,,,,,,,,,,,,,,,,,,,,,,,,,,,,,,,,,,
2550.005,task_1,REST,,,,,,0.388936,0.0,0.0,0.0,0.0,0.0,0.0,0.0,0.0,0.0,,,,,,,,,,,,,,,,,,,,,,,,,1.75802e+09,,,,,,,,,,,,,,,,,,,,,,,,,,,,,,,,,,,,,,,
2700.005,task_1,REST,,,,,,0.389387,0.0,0.0,0.0,0.0,0.0,0.0,0.0,0.0,0.0,,,,,,,,,,,,,,,,,,,,,,,,,1.75802e+09,,,,,,,,,,,,,,,,,,,,,,,,,,,,,,,,,,,,,,,
2850.005,task_1,REST,,,,,,0.389766,0.0,0.0,0.0,0.0,0.0,0.0,0.0,0.0,0.0,,,,,,,,,,,,,,,,,,,,,,,,,1.75802e+09,,,,,,,,,,,,,,,,,,,,,,,,,,,,,,,,,,,,,,,
3000.005,task_1,REST,,,,,,0.39007,0.0,0.0,0.0,0.0,0.0,0.0,0.0,0.0,0.0,,,,,,,,,,,,,,,,,,,,,,,,,1.75802e+09,,,,,,,,,,,,,,,,,,,,,,,,,,,,,,,,,,,,,,,
3150.005,task_1,REST,,,,,,0.390398,0.0,0.0,0.0,0.0,0.0,0.0,0.0,0.0,0.0,,,,,,,,,,,,,,,,,,,,,,,,,1.75802e+09,,,,,,,,,,,,,,,,,,,,,,,,,,,,,,,,,,,,,,,
3300.005,task_1,REST,,,,,,0.390676,0.0,0.0,0.0,0.0,0.0,0.0,0.0,0.0,0.0,,,,,,,,,,,,,,,,,,,,,,,,,1.75802e+09,,,,,,,,,,,,,,,,,,,,,,,,,,,,,,,,,,,,,,,
3450.005,task_1,REST,,,,,,0.390921,0.0,0.0,0.0,0.0,0.0,0.0,0.0,0.0,0.0,,,,,,,,,,,,,,,,,,,,,,,,,1.75802e+09,,,,,,,,,,,,,,,,,,,,,,,,,,,,,,,,,,,,,,,
3600.005,task_1,REST,,,,,,0.391124,0.0,0.0,0.0,0.0,0.0,0.0,0.0,0.0,0.0,,,,,,,,,,,,,,,,,,,,,,,,,1.75802e+09,,,,,,,,,,,,,,,,,,,,,,,,,,,,,,,,,,,,,,,
3750.005,task_1,REST,,,,,,0.391348,0.0,0.0,0.0,0.0,0.0,0.0,0.0,0.0,0.0,,,,,,,,,,,,,,,,,,,,,,,,,1.75802e+09,,,,,,,,,,,,,,,,,,,,,,,,,,,,,,,,,,,,,,,
3900.005,task_1,REST,,,,,,0.391498,0.0,0.0,0.0,0.0,0.0,0.0,0.0,0.0,0.0,,,,,,,,,,,,,,,,,,,,,,,,,1.75802e+09,,,,,,,,,,,,,,,,,,,,,,,,,,,,,,,,,,,,,,,
4050.005,task_1,REST,,,,,,0.391701,0.0,0.0,0.0,0.0,0.0,0.0,0.0,0.0,0.0,,,,,,,,,,,,,,,,,,,,,,,,,1.75802e+09,,,,,,,,,,,,,,,,,,,,,,,,,,,,,,,,,,,,,,,
4200.005,task_1,REST,,,,,,0.391905,0.0,0.0,0.0,0.0,0.0,0.0,0.0,0.0,0.0,,,,,,,,,,,,,,,,,,,,,,,,,1.75802e+09,,,,,,,,,,,,,,,,,,,,,,,,,,,,,,,,,,,,,,,
4350.005,task_1,REST,,,,,,0.392082,0.0,0.0,0.0,0.0,0.0,0.0,0.0,0.0,0.0,,,,,,,,,,,,,,,,,,,,,,,,,1.75802e+09,,,,,,,,,,,,,,,,,,,,,,,,,,,,,,,,,,,,,,,
4500.005,task_1,REST,,,,,,0.392179,0.0,0.0,0.0,0.0,0.0,0.0,0.0,0.0,0.0,,,,,,,,,,,,,,,,,,,,,,,,,1.75802e+09,,,,,,,,,,,,,,,,,,,,,,,,,,,,,,,,,,,,,,,
4650.005,task_1,REST,,,,,,0.392328,0.0,0.0,0.0,0.0,0.0,0.0,0.0,0.0,0.0,,,,,,,,,,,,,,,,,,,,,,,,,1.75802e+09,,,,,,,,,,,,,,,,,,,,,,,,,,,,,,,,,,,,,,,
4800.005,task_1,REST,,,,,,0.392484,0.0,0.0,0.0,0.0,0.0,0.0,0.0,0.0,0.0,,,,,,,,,,,,,,,,,,,,,,,,,1.75802e+09,,,,,,,,,,,,,,,,,,,,,,,,,,,,,,,,,,,,,,,
4950.005,task_1,REST,,,,,,0.392568,0.0,0.0,0.0,0.0,0.0,0.0,0.0,0.0,0.0,,,,,,,,,,,,,,,,,,,,,,,,,1.75802e+09,,,,,,,,,,,,,,,,,,,,,,,,,,,,,,,,,,,,,,,
5100.005,task_1,REST,,,,,,0.392651,0.0,0.0,0.0,0.0,0.0,0.0,0.0,0.0,0.0,,,,,,,,,,,,,,,,,,,,,,,,,1.75802e+09,,,,,,,,,,,,,,,,,,,,,,,,,,,,,,,,,,,,,,,
5250.005,task_1,REST,,,,,,0.392748,0.0,0.0,0.0,0.0,0.0,0.0,0.0,0.0,0.0,,,,,,,,,,,,,,,,,,,,,,,,,1.75802e+09,,,,,,,,,,,,,,,,,,,,,,,,,,,,,,,,,,,,,,,
5400.005,task_1,REST,,,,,,0.392814,0.0,0.0,0.0,0.0,0.0,0.0,0.0,0.0,0.0,,,,,,,,,,,,,,,,,,,,,,,,,1.75802e+09,,,,,,,,,,,,,,,,,,,,,,,,,,,,,,,,,,,,,,,
5550.005,task_1,REST,,,,,,0.39291,0.0,0.0,0.0,0.0,0.0,0.0,0.0,0.0,0.0,,,,,,,,,,,,,,,,,,,,,,,,,1.75802e+09,,,,,,,,,,,,,,,,,,,,,,,,,,,,,,,,,,,,,,,
5700.005,task_1,REST,,,,,,0.39303,0.0,0.0,0.0,0.0,0.0,0.0,0.0,0.0,0.0,,,,,,,,,,,,,,,,,,,,,,,,,1.75802e+09,,,,,,,,,,,,,,,,,,,,,,,,,,,,,,,,,,,,,,,
5850.005,task_1,REST,,,,,,0.393106,0.0,0.0,0.0,0.0,0.0,0.0,0.0,0.0,0.0,,,,,,,,,,,,,,,,,,,,,,,,,1.75802e+09,,,,,,,,,,,,,,,,,,,,,,,,,,,,,,,,,,,,,,,
6000.005,task_1,REST,,,,,,0.393172,0.0,0.0,0.0,0.0,0.0,0.0,0.0,0.0,0.0,,,,,,,,,,,,,,,,,,,,,,,,,1.75802e+09,,,,,,,,,,,,,,,,,,,,,,,,,,,,,,,,,,,,,,,
6150.005,task_1,REST,,,,,,0.393232,0.0,0.0,0.0,0.0,0.0,0.0,0.0,0.0,0.0,,,,,,,,,,,,,,,,,,,,,,,,,1.75802e+09,,,,,,,,,,,,,,,,,,,,,,,,,,,,,,,,,,,,,,,
6300.005,task_1,REST,,,,,,0.39326,0.0,0.0,0.0,0.0,0.0,0.0,0.0,0.0,0.0,,,,,,,,,,,,,,,,,,,,,,,,,1.75802e+09,,,,,,,,,,,,,,,,,,,,,,,,,,,,,,,,,,,,,,,
6450.005,task_1,REST,,,,,,0.393366,0.0,0.0,0.0,0.0,0.0,0.0,0.0,0.0,0.0,,,,,,,,,,,,,,,,,,,,,,,,,1.75802e+09,,,,,,,,,,,,,,,,,,,,,,,,,,,,,,,,,,,,,,,
6600.005,task_1,REST,,,,,,0.393401,0.0,0.0,0.0,0.0,0.0,0.0,0.0,0.0,0.0,,,,,,,,,,,,,,,,,,,,,,,,,1.75802e+09,,,,,,,,,,,,,,,,,,,,,,,,,,,,,,,,,,,,,,,
6750.005,task_1,REST,,,,,,0.393491,0.0,0.0,0.0,0.0,0.0,0.0,0.0,0.0,0.0,,,,,,,,,,,,,,,,,,,,,,,,,1.75802e+09,,,,,,,,,,,,,,,,,,,,,,,,,,,,,,,,,,,,,,,
6900.005,task_1,REST,,,,,,0.39352,0.0,0.0,0.0,0.0,0.0,0.0,0.0,0.0,0.0,,,,,,,,,,,,,,,,,,,,,,,,,1.75803e+09,,,,,,,,,,,,,,,,,,,,,,,,,,,,,,,,,,,,,,,
7050.005,task_1,REST,,,,,,0.393579,0.0,0.0,0.0,0.0,0.0,0.0,0.0,0.0,0.0,,,,,,,,,,,,,,,,,,,,,,,,,1.75803e+09,,,,,,,,,,,,,,,,,,,,,,,,,,,,,,,,,,,,,,,
7200.005,task_1,REST,,,,,,0.393639,0.0,0.0,0.0,0.0,0.0,0.0,0.0,0.0,0.0,,,,,,,,,,,,,,,,,,,,,,,,,1.75803e+09,,,,,,,,,,,,,,,,,,,,,,,,,,,,,,,,,,,,,,,
7350.005,task_1,REST,,,,,,0.393691,0.0,0.0,0.0,0.0,0.0,0.0,0.0,0.0,0.0,,,,,,,,,,,,,,,,,,,,,,,,,1.75803e+09,,,,,,,,,,,,,,,,,,,,,,,,,,,,,,,,,,,,,,,
7500.005,task_1,REST,,,,,,0.393771,0.0,0.0,0.0,0.0,0.0,0.0,0.0,0.0,0.0,,,,,,,,,,,,,,,,,,,,,,,,,1.75803e+09,,,,,,,,,,,,,,,,,,,,,,,,,,,,,,,,,,,,,,,
7650.005,task_1,REST,,,,,,0.393857,0.0,0.0,0.0,0.0,0.0,0.0,0.0,0.0,0.0,,,,,,,,,,,,,,,,,,,,,,,,,1.75803e+09,,,,,,,,,,,,,,,,,,,,,,,,,,,,,,,,,,,,,,,
7800.005,task_1,REST,,,,,,0.393916,0.0,0.0,0.0,0.0,0.0,0.0,0.0,0.0,0.0,,,,,,,,,,,,,,,,,,,,,,,,,1.75803e+09,,,,,,,,,,,,,,,,,,,,,,,,,,,,,,,,,,,,,,,
7950.005,task_1,REST,,,,,,0.393997,0.0,0.0,0.0,0.0,0.0,0.0,0.0,0.0,0.0,,,,,,,,,,,,,,,,,,,,,,,,,1.75803e+09,,,,,,,,,,,,,,,,,,,,,,,,,,,,,,,,,,,,,,,
8100.005,task_1,REST,,,,,,0.394006,0.0,0.0,0.0,0.0,0.0,0.0,0.0,0.0,0.0,,,,,,,,,,,,,,,,,,,,,,,,,1.75803e+09,,,,,,,,,,,,,,,,,,,,,,,,,,,,,,,,,,,,,,,
8250.005,task_1,REST,,,,,,0.394085,0.0,0.0,0.0,0.0,0.0,0.0,0.0,0.0,0.0,,,,,,,,,,,,,,,,,,,,,,,,,1.75803e+09,,,,,,,,,,,,,,,,,,,,,,,,,,,,,,,,,,,,,,,
8400.005,task_1,REST,,,,,,0.394114,0.0,0.0,0.0,0.0,0.0,0.0,0.0,0.0,0.0,,,,,,,,,,,,,,,,,,,,,,,,,1.75803e+09,,,,,,,,,,,,,,,,,,,,,,,,,,,,,,,,,,,,,,,
8550.005,task_1,REST,,,,,,0.394156,0.0,0.0,0.0,0.0,0.0,0.0,0.0,0.0,0.0,,,,,,,,,,,,,,,,,,,,,,,,,1.75803e+09,,,,,,,,,,,,,,,,,,,,,,,,,,,,,,,,,,,,,,,
8700.005,task_1,REST,,,,,,0.394224,0.0,0.0,0.0,0.0,0.0,0.0,0.0,0.0,0.0,,,,,,,,,,,,,,,,,,,,,,,,,1.75803e+09,,,,,,,,,,,,,,,,,,,,,,,,,,,,,,,,,,,,,,,
8850.005,task_1,REST,,,,,,0.394232,0.0,0.0,0.0,0.0,0.0,0.0,0.0,0.0,0.0,,,,,,,,,,,,,,,,,,,,,,,,,1.75803e+09,,,,,,,,,,,,,,,,,,,,,,,,,,,,,,,,,,,,,,,
9000.005,task_1,REST,,,,,,0.394303,0.0,0.0,0.0,0.0,0.0,0.0,0.0,0.0,0.0,,,,,,,,,,,,,,,,,,,,,,,,,1.75803e+09,,,,,,,,,,,,,,,,,,,,,,,,,,,,,,,,,,,,,,,
9150.005,task_1,REST,,,,,,0.394328,0.0,0.0,0.0,0.0,0.0,0.0,0.0,0.0,0.0,,,,,,,,,,,,,,,,,,,,,,,,,1.75803e+09,,,,,,,,,,,,,,,,,,,,,,,,,,,,,,,,,,,,,,,
9300.005,task_1,REST,,,,,,0.394372,0.0,0.0,0.0,0.0,0.0,0.0,0.0,0.0,0.0,,,,,,,,,,,,,,,,,,,,,,,,,1.75803e+09,,,,,,,,,,,,,,,,,,,,,,,,,,,,,,,,,,,,,,,
9450.005,task_1,REST,,,,,,0.394385,0.0,0.0,0.0,0.0,0.0,0.0,0.0,0.0,0.0,,,,,,,,,,,,,,,,,,,,,,,,,1.75803e+09,,,,,,,,,,,,,,,,,,,,,,,,,,,,,,,,,,,,,,,
9600.005,task_1,REST,,,,,,0.394382,0.0,0.0,0.0,0.0,0.0,0.0,0.0,0.0,0.0,,,,,,,,,,,,,,,,,,,,,,,,,1.75803e+09,,,,,,,,,,,,,,,,,,,,,,,,,,,,,,,,,,,,,,,
9750.005,task_1,REST,,,,,,0.394352,0.0,0.0,0.0,0.0,0.0,0.0,0.0,0.0,0.0,,,,,,,,,,,,,,,,,,,,,,,,,1.75803e+09,,,,,,,,,,,,,,,,,,,,,,,,,,,,,,,,,,,,,,,
9900.005,task_1,REST,,,,,,0.394413,0.0,0.0,0.0,0.0,0.0,0.0,0.0,0.0,0.0,,,,,,,,,,,,,,,,,,,,,,,,,1.75803e+09,,,,,,,,,,,,,,,,,,,,,,,,,,,,,,,,,,,,,,,
10050.005,task_1,REST,,,,,,0.39444,0.0,0.0,0.0,0.0,0.0,0.0,0.0,0.0,0.0,,,,,,,,,,,,,,,,,,,,,,,,,1.75803e+09,,,,,,,,,,,,,,,,,,,,,,,,,,,,,,,,,,,,,,,
10200.005,task_1,REST,,,,,,0.394343,0.0,0.0,0.0,0.0,0.0,0.0,0.0,0.0,0.0,,,,,,,,,,,,,,,,,,,,,,,,,1.75803e+09,,,,,,,,,,,,,,,,,,,,,,,,,,,,,,,,,,,,,,,
10350.005,task_1,REST,,,,,,0.394385,0.0,0.0,0.0,0.0,0.0,0.0,0.0,0.0,0.0,,,,,,,,,,,,,,,,,,,,,,,,,1.75803e+09,,,,,,,,,,,,,,,,,,,,,,,,,,,,,,,,,,,,,,,
10500.005,task_1,REST,,,,,,0.394421,0.0,0.0,0.0,0.0,0.0,0.0,0.0,0.0,0.0,,,,,,,,,,,,,,,,,,,,,,,,,1.75803e+09,,,,,,,,,,,,,,,,,,,,,,,,,,,,,,,,,,,,,,,
10650.005,task_1,REST,,,,,,0.394409,0.0,0.0,0.0,0.0,0.0,0.0,0.0,0.0,0.0,,,,,,,,,,,,,,,,,,,,,,,,,1.75803e+09,,,,,,,,,,,,,,,,,,,,,,,,,,,,,,,,,,,,,,,
10800.005,task_1,REST,,,,,,0.394331,0.0,0.0,0.0,0.0,0.0,0.0,0.0,0.0,0.0,,,,,,,,,,,,,,,,,,,,,,,,,1.75803e+09,,,,,,,,,,,,,,,,,,,,,,,,,,,,,,,,,,,,,,,
10950.005,task_1,REST,,,,,,0.394361,0.0,0.0,0.0,0.0,0.0,0.0,0.0,0.0,0.0,,,,,,,,,,,,,,,,,,,,,,,,,1.75803e+09,,,,,,,,,,,,,,,,,,,,,,,,,,,,,,,,,,,,,,,
11100.005,task_1,REST,,,,,,0.394398,0.0,0.0,0.0,0.0,0.0,0.0,0.0,0.0,0.0,,,,,,,,,,,,,,,,,,,,,,,,,1.75803e+09,,,,,,,,,,,,,,,,,,,,,,,,,,,,,,,,,,,,,,,
11250.005,task_1,REST,,,,,,0.394401,0.0,0.0,0.0,0.0,0.0,0.0,0.0,0.0,0.0,,,,,,,,,,,,,,,,,,,,,,,,,1.75803e+09,,,,,,,,,,,,,,,,,,,,,,,,,,,,,,,,,,,,,,,
11400.005,task_1,REST,,,,,,0.394395,0.0,0.0,0.0,0.0,0.0,0.0,0.0,0.0,0.0,,,,,,,,,,,,,,,,,,,,,,,,,1.75803e+09,,,,,,,,,,,,,,,,,,,,,,,,,,,,,,,,,,,,,,,
11550.005,task_1,REST,,,,,,0.394371,0.0,0.0,0.0,0.0,0.0,0.0,0.0,0.0,0.0,,,,,,,,,,,,,,,,,,,,,,,,,1.75803e+09,,,,,,,,,,,,,,,,,,,,,,,,,,,,,,,,,,,,,,,
11700.005,task_1,REST,,,,,,0.394347,0.0,0.0,0.0,0.0,0.0,0.0,0.0,0.0,0.0,,,,,,,,,,,,,,,,,,,,,,,,,1.75803e+09,,,,,,,,,,,,,,,,,,,,,,,,,,,,,,,,,,,,,,,
11850.005,task_1,REST,,,,,,0.39432,0.0,0.0,0.0,0.0,0.0,0.0,0.0,0.0,0.0,,,,,,,,,,,,,,,,,,,,,,,,,1.75803e+09,,,,,,,,,,,,,,,,,,,,,,,,,,,,,,,,,,,,,,,
12000.005,task_1,REST,,,,,,0.394281,0.0,0.0,0.0,0.0,0.0,0.0,0.0,0.0,0.0,,,,,,,,,,,,,,,,,,,,,,,,,1.75803e+09,,,,,,,,,,,,,,,,,,,,,,,,,,,,,,,,,,,,,,,
12150.005,task_1,REST,,,,,,0.394256,0.0,0.0,0.0,0.0,0.0,0.0,0.0,0.0,0.0,,,,,,,,,,,,,,,,,,,,,,,,,1.75803e+09,,,,,,,,,,,,,,,,,,,,,,,,,,,,,,,,,,,,,,,
12300.005,task_1,REST,,,,,,0.394219,0.0,0.0,0.0,0.0,0.0,0.0,0.0,0.0,0.0,,,,,,,,,,,,,,,,,,,,,,,,,1.75803e+09,,,,,,,,,,,,,,,,,,,,,,,,,,,,,,,,,,,,,,,
12450.005,task_1,REST,,,,,,0.394185,0.0,0.0,0.0,0.0,0.0,0.0,0.0,0.0,0.0,,,,,,,,,,,,,,,,,,,,,,,,,1.75803e+09,,,,,,,,,,,,,,,,,,,,,,,,,,,,,,,,,,,,,,,
12600.005,task_1,REST,,,,,,0.394101,0.0,0.0,0.0,0.0,0.0,0.0,0.0,0.0,0.0,,,,,,,,,,,,,,,,,,,,,,,,,1.75803e+09,,,,,,,,,,,,,,,,,,,,,,,,,,,,,,,,,,,,,,,
12750.005,task_1,REST,,,,,,0.394096,0.0,0.0,0.0,0.0,0.0,0.0,0.0,0.0,0.0,,,,,,,,,,,,,,,,,,,,,,,,,1.75803e+09,,,,,,,,,,,,,,,,,,,,,,,,,,,,,,,,,,,,,,,
12900.005,task_1,REST,,,,,,0.394006,0.0,0.0,0.0,0.0,0.0,0.0,0.0,0.0,0.0,,,,,,,,,,,,,,,,,,,,,,,,,1.75803e+09,,,,,,,,,,,,,,,,,,,,,,,,,,,,,,,,,,,,,,,
13050.005,task_1,REST,,,,,,0.393948,0.0,0.0,0.0,0.0,0.0,0.0,0.0,0.0,0.0,,,,,,,,,,,,,,,,,,,,,,,,,1.75803e+09,,,,,,,,,,,,,,,,,,,,,,,,,,,,,,,,,,,,,,,
13200.005,task_1,REST,,,,,,0.393981,0.0,0.0,0.0,0.0,0.0,0.0,0.0,0.0,0.0,,,,,,,,,,,,,,,,,,,,,,,,,1.75803e+09,,,,,,,,,,,,,,,,,,,,,,,,,,,,,,,,,,,,,,,
13350.005,task_1,REST,,,,,,0.393868,0.0,0.0,0.0,0.0,0.0,0.0,0.0,0.0,0.0,,,,,,,,,,,,,,,,,,,,,,,,,1.75803e+09,,,,,,,,,,,,,,,,,,,,,,,,,,,,,,,,,,,,,,,
13500.005,task_1,REST,,,,,,0.393674,0.0,0.0,0.0,0.0,0.0,0.0,0.0,0.0,0.0,,,,,,,,,,,,,,,,,,,,,,,,,1.75803e+09,,,,,,,,,,,,,,,,,,,,,,,,,,,,,,,,,,,,,,,
13650.005,task_1,REST,,,,,,0.393699,0.0,0.0,0.0,0.0,0.0,0.0,0.0,0.0,0.0,,,,,,,,,,,,,,,,,,,,,,,,,1.75803e+09,,,,,,,,,,,,,,,,,,,,,,,,,,,,,,,,,,,,,,,
13800.005,task_1,REST,,,,,,0.393691,0.0,0.0,0.0,0.0,0.0,0.0,0.0,0.0,0.0,,,,,,,,,,,,,,,,,,,,,,,,,1.75803e+09,,,,,,,,,,,,,,,,,,,,,,,,,,,,,,,,,,,,,,,
13950.005,task_1,REST,,,,,,0.393612,0.0,0.0,0.0,0.0,0.0,0.0,0.0,0.0,0.0,,,,,,,,,,,,,,,,,,,,,,,,,1.75803e+09,,,,,,,,,,,,,,,,,,,,,,,,,,,,,,,,,,,,,,,
14100.005,task_1,REST,,,,,,0.393576,0.0,0.0,0.0,0.0,0.0,0.0,0.0,0.0,0.0,,,,,,,,,,,,,,,,,,,,,,,,,1.75803e+09,,,,,,,,,,,,,,,,,,,,,,,,,,,,,,,,,,,,,,,
14250.005,task_1,REST,,,,,,0.393499,0.0,0.0,0.0,0.0,0.0,0.0,0.0,0.0,0.0,,,,,,,,,,,,,,,,,,,,,,,,,1.75803e+09,,,,,,,,,,,,,,,,,,,,,,,,,,,,,,,,,,,,,,,
14400.005,task_1,REST,,,,,,0.393476,0.0,0.0,0.0,0.0,0.0,0.0,0.0,0.0,0.0,,,,,,,,,,,,,,,,,,,,,,,,,1.75803e+09,,,,,,,,,,,,,,,,,,,,,,,,,,,,,,,,,,,,,,,
14550.005,task_1,REST,,,,,,0.393388,0.0,0.0,0.0,0.0,0.0,0.0,0.0,0.0,0.0,,,,,,,,,,,,,,,,,,,,,,,,,1.75803e+09,,,,,,,,,,,,,,,,,,,,,,,,,,,,,,,,,,,,,,,
14700.005,task_1,REST,,,,,,0.393331,0.0,0.0,0.0,0.0,0.0,0.0,0.0,0.0,0.0,,,,,,,,,,,,,,,,,,,,,,,,,1.75803e+09,,,,,,,,,,,,,,,,,,,,,,,,,,,,,,,,,,,,,,,
14850.005,task_1,REST,,,,,,0.393237,0.0,0.0,0.0,0.0,0.0,0.0,0.0,0.0,0.0,,,,,,,,,,,,,,,,,,,,,,,,,1.75803e+09,,,,,,,,,,,,,,,,,,,,,,,,,,,,,,,,,,,,,,,
15000.005,task_1,REST,,,,,,0.393142,0.0,0.0,0.0,0.0,0.0,0.0,0.0,0.0,0.0,,,,,,,,,,,,,,,,,,,,,,,,,1.75803e+09,,,,,,,,,,,,,,,,,,,,,,,,,,,,,,,,,,,,,,,
15150.005,task_1,REST,,,,,,0.393068,0.0,0.0,0.0,0.0,0.0,0.0,0.0,0.0,0.0,,,,,,,,,,,,,,,,,,,,,,,,,1.75803e+09,,,,,,,,,,,,,,,,,,,,,,,,,,,,,,,,,,,,,,,
15300.005,task_1,REST,,,,,,0.392981,0.0,0.0,0.0,0.0,0.0,0.0,0.0,0.0,0.0,,,,,,,,,,,,,,,,,,,,,,,,,1.75803e+09,,,,,,,,,,,,,,,,,,,,,,,,,,,,,,,,,,,,,,,
15450.005,task_1,REST,,,,,,0.392883,0.0,0.0,0.0,0.0,0.0,0.0,0.0,0.0,0.0,,,,,,,,,,,,,,,,,,,,,,,,,1.75803e+09,,,,,,,,,,,,,,,,,,,,,,,,,,,,,,,,,,,,,,,
15600.005,task_1,REST,,,,,,0.392856,0.0,0.0,0.0,0.0,0.0,0.0,0.0,0.0,0.0,,,,,,,,,,,,,,,,,,,,,,,,,1.75803e+09,,,,,,,,,,,,,,,,,,,,,,,,,,,,,,,,,,,,,,,
15750.005,task_1,REST,,,,,,0.392777,0.0,0.0,0.0,0.0,0.0,0.0,0.0,0.0,0.0,,,,,,,,,,,,,,,,,,,,,,,,,1.75803e+09,,,,,,,,,,,,,,,,,,,,,,,,,,,,,,,,,,,,,,,
15900.005,task_1,REST,,,,,,0.392653,0.0,0.0,0.0,0.0,0.0,0.0,0.0,0.0,0.0,,,,,,,,,,,,,,,,,,,,,,,,,1.75803e+09,,,,,,,,,,,,,,,,,,,,,,,,,,,,,,,,,,,,,,,
16050.005,task_1,REST,,,,,,0.392593,0.0,0.0,0.0,0.0,0.0,0.0,0.0,0.0,0.0,,,,,,,,,,,,,,,,,,,,,,,,,1.75803e+09,,,,,,,,,,,,,,,,,,,,,,,,,,,,,,,,,,,,,,,
16200.005,task_1,REST,,,,,,0.392549,0.0,0.0,0.0,0.0,0.0,0.0,0.0,0.0,0.0,,,,,,,,,,,,,,,,,,,,,,,,,1.75803e+09,,,,,,,,,,,,,,,,,,,,,,,,,,,,,,,,,,,,,,,
16350.005,task_1,REST,,,,,,0.392407,0.0,0.0,0.0,0.0,0.0,0.0,0.0,0.0,0.0,,,,,,,,,,,,,,,,,,,,,,,,,1.75803e+09,,,,,,,,,,,,,,,,,,,,,,,,,,,,,,,,,,,,,,,
16500.005,task_1,REST,,,,,,0.392386,0.0,0.0,0.0,0.0,0.0,0.0,0.0,0.0,0.0,,,,,,,,,,,,,,,,,,,,,,,,,1.75803e+09,,,,,,,,,,,,,,,,,,,,,,,,,,,,,,,,,,,,,,,
16650.005,task_1,REST,,,,,,0.39232,0.0,0.0,0.0,0.0,0.0,0.0,0.0,0.0,0.0,,,,,,,,,,,,,,,,,,,,,,,,,1.75803e+09,,,,,,,,,,,,,,,,,,,,,,,,,,,,,,,,,,,,,,,
16800.005,task_1,REST,,,,,,0.392213,0.0,0.0,0.0,0.0,0.0,0.0,0.0,0.0,0.0,,,,,,,,,,,,,,,,,,,,,,,,,1.75803e+09,,,,,,,,,,,,,,,,,,,,,,,,,,,,,,,,,,,,,,,
16950.005,task_1,REST,,,,,,0.392214,0.0,0.0,0.0,0.0,0.0,0.0,0.0,0.0,0.0,,,,,,,,,,,,,,,,,,,,,,,,,1.75804e+09,,,,,,,,,,,,,,,,,,,,,,,,,,,,,,,,,,,,,,,
17100.005,task_1,REST,,,,,,0.392107,0.0,0.0,0.0,0.0,0.0,0.0,0.0,0.0,0.0,,,,,,,,,,,,,,,,,,,,,,,,,1.75804e+09,,,,,,,,,,,,,,,,,,,,,,,,,,,,,,,,,,,,,,,
17250.005,task_1,REST,,,,,,0.392083,0.0,0.0,0.0,0.0,0.0,0.0,0.0,0.0,0.0,,,,,,,,,,,,,,,,,,,,,,,,,1.75804e+09,,,,,,,,,,,,,,,,,,,,,,,,,,,,,,,,,,,,,,,
17400.005,task_1,REST,,,,,,0.391969,0.0,0.0,0.0,0.0,0.0,0.0,0.0,0.0,0.0,,,,,,,,,,,,,,,,,,,,,,,,,1.75804e+09,,,,,,,,,,,,,,,,,,,,,,,,,,,,,,,,,,,,,,,
17550.005,task_1,REST,,,,,,0.391946,0.0,0.0,0.0,0.0,0.0,0.0,0.0,0.0,0.0,,,,,,,,,,,,,,,,,,,,,,,,,1.75804e+09,,,,,,,,,,,,,,,,,,,,,,,,,,,,,,,,,,,,,,,
17700.005,task_1,REST,,,,,,0.391925,0.0,0.0,0.0,0.0,0.0,0.0,0.0,0.0,0.0,,,,,,,,,,,,,,,,,,,,,,,,,1.75804e+09,,,,,,,,,,,,,,,,,,,,,,,,,,,,,,,,,,,,,,,
17850.005,task_1,REST,,,,,,0.391867,0.0,0.0,0.0,0.0,0.0,0.0,0.0,0.0,0.0,,,,,,,,,,,,,,,,,,,,,,,,,1.75804e+09,,,,,,,,,,,,,,,,,,,,,,,,,,,,,,,,,,,,,,,
18000.005,task_1,REST,,,,,,0.391802,0.0,0.0,0.0,0.0,0.0,0.0,0.0,0.0,0.0,,,,,,,,,,,,,,,,,,,,,,,,,1.75804e+09,,,,,,,,,,,,,,,,,,,,,,,,,,,,,,,,,,,,,,,
18150.005,task_1,REST,,,,,,0.391766,0.0,0.0,0.0,0.0,0.0,0.0,0.0,0.0,0.0,,,,,,,,,,,,,,,,,,,,,,,,,1.75804e+09,,,,,,,,,,,,,,,,,,,,,,,,,,,,,,,,,,,,,,,
18300.005,task_1,REST,,,,,,0.391708,0.0,0.0,0.0,0.0,0.0,0.0,0.0,0.0,0.0,,,,,,,,,,,,,,,,,,,,,,,,,1.75804e+09,,,,,,,,,,,,,,,,,,,,,,,,,,,,,,,,,,,,,,,
18450.005,task_1,REST,,,,,,0.391681,0.0,0.0,0.0,0.0,0.0,0.0,0.0,0.0,0.0,,,,,,,,,,,,,,,,,,,,,,,,,1.75804e+09,,,,,,,,,,,,,,,,,,,,,,,,,,,,,,,,,,,,,,,
18600.005,task_1,REST,,,,,,0.391607,0.0,0.0,0.0,0.0,0.0,0.0,0.0,0.0,0.0,,,,,,,,,,,,,,,,,,,,,,,,,1.75804e+09,,,,,,,,,,,,,,,,,,,,,,,,,,,,,,,,,,,,,,,
18750.005,task_1,REST,,,,,,0.391528,0.0,0.0,0.0,0.0,0.0,0.0,0.0,0.0,0.0,,,,,,,,,,,,,,,,,,,,,,,,,1.75804e+09,,,,,,,,,,,,,,,,,,,,,,,,,,,,,,,,,,,,,,,
18900.005,task_1,REST,,,,,,0.391474,0.0,0.0,0.0,0.0,0.0,0.0,0.0,0.0,0.0,,,,,,,,,,,,,,,,,,,,,,,,,1.75804e+09,,,,,,,,,,,,,,,,,,,,,,,,,,,,,,,,,,,,,,,
19050.005,task_1,REST,,,,,,0.391406,0.0,0.0,0.0,0.0,0.0,0.0,0.0,0.0,0.0,,,,,,,,,,,,,,,,,,,,,,,,,1.75804e+09,,,,,,,,,,,,,,,,,,,,,,,,,,,,,,,,,,,,,,,
19200.005,task_1,REST,,,,,,0.391331,0.0,0.0,0.0,0.0,0.0,0.0,0.0,0.0,0.0,,,,,,,,,,,,,,,,,,,,,,,,,1.75804e+09,,,,,,,,,,,,,,,,,,,,,,,,,,,,,,,,,,,,,,,
19350.005,task_1,REST,,,,,,0.391261,0.0,0.0,0.0,0.0,0.0,0.0,0.0,0.0,0.0,,,,,,,,,,,,,,,,,,,,,,,,,1.75804e+09,,,,,,,,,,,,,,,,,,,,,,,,,,,,,,,,,,,,,,,
19500.005,task_1,REST,,,,,,0.391143,0.0,0.0,0.0,0.0,0.0,0.0,0.0,0.0,0.0,,,,,,,,,,,,,,,,,,,,,,,,,1.75804e+09,,,,,,,,,,,,,,,,,,,,,,,,,,,,,,,,,,,,,,,
19650.005,task_1,REST,,,,,,0.391021,0.0,0.0,0.0,0.0,0.0,0.0,0.0,0.0,0.0,,,,,,,,,,,,,,,,,,,,,,,,,1.75804e+09,,,,,,,,,,,,,,,,,,,,,,,,,,,,,,,,,,,,,,,
19800.005,task_1,REST,,,,,,0.39093,0.0,0.0,0.0,0.0,0.0,0.0,0.0,0.0,0.0,,,,,,,,,,,,,,,,,,,,,,,,,1.75804e+09,,,,,,,,,,,,,,,,,,,,,,,,,,,,,,,,,,,,,,,
19950.005,task_1,REST,,,,,,0.390797,0.0,0.0,0.0,0.0,0.0,0.0,0.0,0.0,0.0,,,,,,,,,,,,,,,,,,,,,,,,,1.75804e+09,,,,,,,,,,,,,,,,,,,,,,,,,,,,,,,,,,,,,,,
20100.005,task_1,REST,,,,,,0.390666,0.0,0.0,0.0,0.0,0.0,0.0,0.0,0.0,0.0,,,,,,,,,,,,,,,,,,,,,,,,,1.75804e+09,,,,,,,,,,,,,,,,,,,,,,,,,,,,,,,,,,,,,,,
20250.005,task_1,REST,,,,,,0.390521,0.0,0.0,0.0,0.0,0.0,0.0,0.0,0.0,0.0,,,,,,,,,,,,,,,,,,,,,,,,,1.75804e+09,,,,,,,,,,,,,,,,,,,,,,,,,,,,,,,,,,,,,,,
20400.005,task_1,REST,,,,,,0.390441,0.0,0.0,0.0,0.0,0.0,0.0,0.0,0.0,0.0,,,,,,,,,,,,,,,,,,,,,,,,,1.75804e+09,,,,,,,,,,,,,,,,,,,,,,,,,,,,,,,,,,,,,,,
20550.005,task_1,REST,,,,,,0.39027,0.0,0.0,0.0,0.0,0.0,0.0,0.0,0.0,0.0,,,,,,,,,,,,,,,,,,,,,,,,,1.75804e+09,,,,,,,,,,,,,,,,,,,,,,,,,,,,,,,,,,,,,,,
20700.005,task_1,REST,,,,,,0.390127,0.0,0.0,0.0,0.0,0.0,0.0,0.0,0.0,0.0,,,,,,,,,,,,,,,,,,,,,,,,,1.75804e+09,,,,,,,,,,,,,,,,,,,,,,,,,,,,,,,,,,,,,,,
20850.005,task_1,REST,,,,,,0.389988,0.0,0.0,0.0,0.0,0.0,0.0,0.0,0.0,0.0,,,,,,,,,,,,,,,,,,,,,,,,,1.75804e+09,,,,,,,,,,,,,,,,,,,,,,,,,,,,,,,,,,,,,,,
21000.005,task_1,REST,,,,,,0.389794,0.0,0.0,0.0,0.0,0.0,0.0,0.0,0.0,0.0,,,,,,,,,,,,,,,,,,,,,,,,,1.75804e+09,,,,,,,,,,,,,,,,,,,,,,,,,,,,,,,,,,,,,,,
21150.005,task_1,REST,,,,,,0.38962,0.0,0.0,0.0,0.0,0.0,0.0,0.0,0.0,0.0,,,,,,,,,,,,,,,,,,,,,,,,,1.75804e+09,,,,,,,,,,,,,,,,,,,,,,,,,,,,,,,,,,,,,,,
21300.005,task_1,REST,,,,,,0.389469,0.0,0.0,0.0,0.0,0.0,0.0,0.0,0.0,0.0,,,,,,,,,,,,,,,,,,,,,,,,,1.75804e+09,,,,,,,,,,,,,,,,,,,,,,,,,,,,,,,,,,,,,,,
21450.005,task_1,REST,,,,,,0.389289,0.0,0.0,0.0,0.0,0.0,0.0,0.0,0.0,0.0,,,,,,,,,,,,,,,,,,,,,,,,,1.75804e+09,,,,,,,,,,,,,,,,,,,,,,,,,,,,,,,,,,,,,,,
21600.002,task_1,REST,,,,,,0.389103,0.0,0.0,0.0,0.0,0.0,0.0,0.0,0.0,0.0,,,,,,,,,,,,,,,,,,,,,,,,,1.75804e+09,,,,,,,,,,,,,,,,,,,,,,,,,,,,,,,,,,,,,,,
21720.075,task_3,CC,1,1,,,,2.85196,0.000237629,0.000677709,7.92198e-06,7.92198e-06,0.0,7.92198e-06,1.95624e-05,1.95624e-05,0.0,,0.001,CHARGE,,,,,,,,,,,,,,,,,,,,,,1.75804e+09,,,,,,,,,,,,,,,,,,,,,,,,,,,,,,,,,,,,,,,
21870.075,task_3,CC,1,1,,,,3.18979,0.000237707,0.000758233,1.78246e-05,1.78246e-05,0.0,1.78246e-05,4.96564e-05,4.96564e-05,0.0,,0.001,CHARGE,,,,,,,,,,,,,,,,,,,,,,1.75804e+09,,,,,,,,,,,,,,,,,,,,,,,,,,,,,,,,,,,,,,,
22020.075,task_3,CC,1,1,,,,3.34455,0.000237683,0.000794942,2.77272e-05,2.77272e-05,0.0,2.77272e-05,8.21095e-05,8.21095e-05,0.0,,0.001,CHARGE,,,,,,,,,,,,,,,,,,,,,,1.75804e+09,,,,,,,,,,,,,,,,,,,,,,,,,,,,,,,,,,,,,,,
22170.075,task_3,CC,1,1,,,,3.44097,0.000237691,0.000817888,3.76299e-05,3.76299e-05,0.0,3.76299e-05,0.000115731,0.000115731,0.0,,0.001,CHARGE,,,,,,,,,,,,,,,,,,,,,,1.75804e+09,,,,,,,,,,,,,,,,,,,,,,,,,,,,,,,,,,,,,,,
22320.075,task_3,CC,1,1,,,,3.50889,0.000237669,0.000833953,4.75326e-05,4.75326e-05,0.0,4.75326e-05,0.000150132,0.000150132,0.0,,0.001,CHARGE,,,,,,,,,,,,,,,,,,,,,,1.75804e+09,,,,,,,,,,,,,,,,,,,,,,,,,,,,,,,,,,,,,,,
22470.075,task_3,CC,1,1,,,,3.57939,0.000237625,0.000850551,5.74354e-05,5.74354e-05,0.0,5.74354e-05,0.000185227,0.000185227,0.0,,0.001,CHARGE,,,,,,,,,,,,,,,,,,,,,,1.75804e+09,,,,,,,,,,,,,,,,,,,,,,,,,,,,,,,,,,,,,,,
22620.075,task_3,CC,1,1,,,,3.64744,0.000237614,0.000866685,6.7338e-05,6.7338e-05,0.0,6.7338e-05,0.000221013,0.000221013,0.0,,0.001,CHARGE,,,,,,,,,,,,,,,,,,,,,,1.75804e+09,,,,,,,,,,,,,,,,,,,,,,,,,,,,,,,,,,,,,,,
22770.075,task_3,CC,1,1,,,,3.71165,0.000237706,0.000882281,7.72407e-05,7.72407e-05,0.0,7.72407e-05,0.000257451,0.000257451,0.0,,0.001,CHARGE,,,,,,,,,,,,,,,,,,,,,,1.75804e+09,,,,,,,,,,,,,,,,,,,,,,,,,,,,,,,,,,,,,,,
22920.075,task_3,CC,1,1,,,,3.77388,0.000237669,0.000896934,8.71433e-05,8.71433e-05,0.0,8.71433e-05,0.000294517,0.000294517,0.0,,0.001,CHARGE,,,,,,,,,,,,,,,,,,,,,,1.75804e+09,,,,,,,,,,,,,,,,,,,,,,,,,,,,,,,,,,,,,,,
23070.075,task_3,CC,1,1,,,,3.83375,0.000237666,0.000911152,9.70459e-05,9.70459e-05,0.0,9.70459e-05,0.000332187,0.000332187,0.0,,0.001,CHARGE,,,,,,,,,,,,,,,,,,,,,,1.75804e+09,,,,,,,,,,,,,,,,,,,,,,,,,,,,,,,,,,,,,,,
23220.075,task_3,CC,1,1,,,,3.88379,0.000237647,0.000922974,0.000106949,0.000106949,0.0,0.000106949,0.00037042,0.00037042,0.0,,0.001,CHARGE,,,,,,,,,,,,,,,,,,,,,,1.75804e+09,,,,,,,,,,,,,,,,,,,,,,,,,,,,,,,,,,,,,,,
23370.075,task_3,CC,1,1,,,,3.92232,0.000237646,0.000932124,0.000116851,0.000116851,0.0,0.000116851,0.000409057,0.000409057,0.0,,0.001,CHARGE,,,,,,,,,,,,,,,,,,,,,,1.75804e+09,,,,,,,,,,,,,,,,,,,,,,,,,,,,,,,,,,,,,,,
23520.075,task_3,CC,1,1,,,,3.97023,0.000237638,0.000943476,0.000126754,0.000126754,0.0,0.000126754,0.000448125,0.000448125,0.0,,0.001,CHARGE,,,,,,,,,,,,,,,,,,,,,,1.75804e+09,,,,,,,,,,,,,,,,,,,,,,,,,,,,,,,,,,,,,,,
23670.075,task_3,CC,1,1,,,,4.02466,0.000237714,0.000956717,0.000136656,0.000136656,0.0,0.000136656,0.000487701,0.000487701,0.0,,0.001,CHARGE,,,,,,,,,,,,,,,,,,,,,,1.75804e+09,,,,,,,,,,,,,,,,,,,,,,,,,,,,,,,,,,,,,,,
23820.075,task_3,CC,1,1,,,,4.08859,0.000237584,0.000971381,0.000146559,0.000146559,0.0,0.000146559,0.000527871,0.000527871,0.0,,0.001,CHARGE,,,,,,,,,,,,,,,,,,,,,,1.75804e+09,,,,,,,,,,,,,,,,,,,,,,,,,,,,,,,,,,,,,,,
23970.075,task_3,CC,1,1,,,,4.15521,0.000237681,0.000987613,0.000156461,0.000156461,0.0,0.000156461,0.000568685,0.000568685,0.0,,0.001,CHARGE,,,,,,,,,,,,,,,,,,,,,,1.75804e+09,,,,,,,,,,,,,,,,,,,,,,,,,,,,,,,,,,,,,,,
24064.484,task_4,CC,1,1,,,,3.90204,-0.000233628,-0.000911625,0.000162693,0.0,6.48966e-11,6.48966e-11,0.000594718,0.0,2.53229e-10,,0.001,DISCHARGE,,,,,,,,,,,,,,,,,,,,,,1.75804e+09,,,,,,,,,,,,,,,,,,,,,,,,,,,,,,,,,,,,,,,
24214.484,task_4,CC,1,1,,,,2.89572,-0.000237397,-0.000687435,0.000152801,0.0,9.89229e-06,9.89229e-06,0.000564759,0.0,2.99599e-05,,0.001,DISCHARGE,,,,,,,,,,,,,,,,,,,,,,1.75804e+09,,,,,,,,,,,,,,,,,,,,,,,,,,,,,,,,,,,,,,,
24364.484,task_4,CC,1,1,,,,2.71458,-0.000237377,-0.00064438,0.000142909,0.0,1.97845e-05,1.97845e-05,0.000537021,0.0,5.76978e-05,,0.001,DISCHARGE,,,,,,,,,,,,,,,,,,,,,,1.75804e+09,,,,,,,,,,,,,,,,,,,,,,,,,,,,,,,,,,,,,,,
24514.484,task_4,CC,1,1,,,,2.52924,-0.000237424,-0.000600501,0.000133016,0.0,2.96769e-05,2.96769e-05,0.000511071,0.0,8.36473e-05,,0.001,DISCHARGE,,,,,,,,,,,,,,,,,,,,,,1.75804e+09,,,,,,,,,,,,,,,,,,,,,,,,,,,,,,,,,,,,,,,
24610.323,task_3,CC,2,2,,,,2.70756,0.00023488,0.000635953,0.000126697,6.52445e-11,0.0,6.52445e-11,0.000495491,1.76654e-10,0.0,,0.001,CHARGE,,,,,,,,,,,,,,,,,,,,,,1.75804e+09,,,,,,,,,,,,,,,,,,,,,,,,,,,,,,,,,,,,,,,
24760.323,task_3,CC,2,2,,,,3.78173,0.00023758,0.000898465,0.000136599,9.90253e-06,0.0,9.90253e-06,0.000531867,3.63759e-05,0.0,,0.001,CHARGE,,,,,,,,,,,,,,,,,,,,,,1.75804e+09,,,,,,,,,,,,,,,,,,,,,,,,,,,,,,,,,,,,,,,
24910.323,task_3,CC,2,2,,,,3.90136,0.000237661,0.000927201,0.000146502,1.9805e-05,0.0,1.9805e-05,0.000569938,7.44468e-05,0.0,,0.001,CHARGE,,,,,,,,,,,,,,,,,,,,,,1.75804e+09,,,,,,,,,,,,,,,,,,,,,,,,,,,,,,,,,,,,,,,
25060.323,task_3,CC,2,2,,,,4.00246,0.000237595,0.000950964,0.000156404,2.97075e-05,0.0,2.97075e-05,0.000609081,0.00011359,0.0,,0.001,CHARGE,,,,,,,,,,,,,,,,,,,,,,1.75804e+09,,,,,,,,,,,,,,,,,,,,,,,,,,,,,,,,,,,,,,,
25210.323,task_3,CC,2,2,,,,4.09503,0.000237676,0.000973289,0.000166307,3.961e-05,0.0,3.961e-05,0.000649179,0.000153687,0.0,,0.001,CHARGE,,,,,,,,,,,,,,,,,,,,,,1.75804e+09,,,,,,,,,,,,,,,,,,,,,,,,,,,,,,,,,,,,,,,
25360.323,task_3,CC,2,2,,,,4.18311,0.000237625,0.000994009,0.000176209,4.95124e-05,0.0,4.95124e-05,0.000690169,0.000194678,0.0,,0.001,CHARGE,,,,,,,,,,,,,,,,,,,,,,1.75804e+09,,,,,,,,,,,,,,,,,,,,,,,,,,,,,,,,,,,,,,,
25479.859,task_4,CC,2,2,,,,2.96073,-0.000237349,-0.000702726,0.000172223,0.0,5.9354e-06,5.9354e-06,0.00068012,0.0,1.822e-05,,0.001,DISCHARGE,,,,,,,,,,,,,,,,,,,,,,1.75804e+09,,,,,,,,,,,,,,,,,,,,,,,,,,,,,,,,,,,,,,,
25629.859,task_4,CC,2,2,,,,2.76078,-0.00023746,-0.000655574,0.000162331,0.0,1.58276e-05,1.58276e-05,0.000651864,0.0,4.64758e-05,,0.001,DISCHARGE,,,,,,,,,,,,,,,,,,,,,,1.75804e+09,,,,,,,,,,,,,,,,,,,,,,,,,,,,,,,,,,,,,,,
25779.859,task_4,CC,2,2,,,,2.57834,-0.000237421,-0.000612152,0.000152439,0.0,2.57198e-05,2.57198e-05,0.000625457,0.0,7.28828e-05,,0.001,DISCHARGE,,,,,,,,,,,,,,,,,,,,,,1.75804e+09,,,,,,,,,,,,,,,,,,,,,,,,,,,,,,,,,,,,,,,
25924.897,task_4,CC,2,2,,,,2.40001,-0.000237384,-0.000569725,0.000142874,0.0,3.52849e-05,3.52849e-05,0.000601643,0.0,9.6697e-05,,0.001,DISCHARGE,,,,,,,,,,,,,,,,,,,,,,1.75804e+09,,,,,,,,,,,,,,,,,,,,,,,,,,,,,,,,,,,,,,,
26044.913,task_3,CC,3,3,,,,3.8006,0.000237651,0.000903215,0.000150796,7.92201e-06,0.0,7.92201e-06,0.000630922,2.92791e-05,0.0,,0.001,CHARGE,,,,,,,,,,,,,,,,,,,,,,1.75804e+09,,,,,,,,,,,,,,,,,,,,,,,,,,,,,,,,,,,,,,,
26194.913,task_3,CC,3,3,,,,3.93043,0.000237693,0.000934236,0.000160698,1.78244e-05,0.0,1.78244e-05,0.000669236,6.75929e-05,0.0,,0.001,CHARGE,,,,,,,,,,,,,,,,,,,,,,1.75804e+09,,,,,,,,,,,,,,,,,,,,,,,,,,,,,,,,,,,,,,,
26344.913,task_3,CC,3,3,,,,4.03647,0.000237628,0.000959177,0.000170601,2.77268e-05,0.0,2.77268e-05,0.000708692,0.000107049,0.0,,0.001,CHARGE,,,,,,,,,,,,,,,,,,,,,,1.75804e+09,,,,,,,,,,,,,,,,,,,,,,,,,,,,,,,,,,,,,,,
26494.913,task_3,CC,3,3,,,,4.13164,0.000237648,0.000981877,0.000180503,3.76293e-05,0.0,3.76293e-05,0.000749142,0.000147499,0.0,,0.001,CHARGE,,,,,,,,,,,,,,,,,,,,,,1.75804e+09,,,,,,,,,,,,,,,,,,,,,,,,,,,,,,,,,,,,,,,
26610.125,task_4,CC,3,3,,,,3.8862,-0.000233586,-0.000907761,0.000188108,0.0,6.4885e-11,6.4885e-11,0.000780825,0.0,2.52156e-10,,0.001,DISCHARGE,,,,,,,,,,,,,,,,,,,,,,1.75804e+09,,,,,,,,,,,,,,,,,,,,,,,,,,,,,,,,,,,,,,,
26760.125,task_4,CC,3,3,,,,2.8564,-0.00023743,-0.000678195,0.000178216,0.0,9.89241e-06,9.89241e-06,0.000751193,0.0,2.96321e-05,,0.001,DISCHARGE,,,,,,,,,,,,,,,,,,,,,,1.75804e+09,,,,,,,,,,,,,,,,,,,,,,,,,,,,,,,,,,,,,,,
26910.125,task_4,CC,3,3,,,,2.66073,-0.000237391,-0.000631633,0.000168324,0.0,1.97848e-05,1.97848e-05,0.000723918,0.0,5.69069e-05,,0.001,DISCHARGE,,,,,,,,,,,,,,,,,,,,,,1.75805e+09,,,,,,,,,,,,,,,,,,,,,,,,,,,,,,,,,,,,,,,
27060.125,task_4,CC,3,3,,,,2.47515,-0.000237366,-0.000587517,0.000158431,0.0,2.96773e-05,2.96773e-05,0.000698521,0.0,8.2304e-05,,0.001,DISCHARGE,,,,,,,,,,,,,,,,,,,,,,1.75805e+09,,,,,,,,,,,,,,,,,,,,,,,,,,,,,,,,,,,,,,,
27151.764,task_3,CC,4,4,,,,3.69327,0.000237645,0.000877689,0.000156348,1.98051e-06,0.0,1.98051e-06,0.000695721,7.10589e-06,0.0,,0.001,CHARGE,,,,,,,,,,,,,,,,,,,,,,1.75805e+09,,,,,,,,,,,,,,,,,,,,,,,,,,,,,,,,,,,,,,,
27301.764,task_3,CC,4,4,,,,3.89331,0.000237646,0.00092523,0.00016625,1.18829e-05,0.0,1.18829e-05,0.000733468,4.48531e-05,0.0,,0.001,CHARGE,,,,,,,,,,,,,,,,,,,,,,1.75805e+09,,,,,,,,,,,,,,,,,,,,,,,,,,,,,,,,,,,,,,,
27451.764,task_3,CC,4,4,,,,4.00974,0.000237694,0.000953092,0.000176152,2.17853e-05,0.0,2.17853e-05,0.000772616,8.40013e-05,0.0,,0.001,CHARGE,,,,,,,,,,,,,,,,,,,,,,1.75805e+09,,,,,,,,,,,,,,,,,,,,,,,,,,,,,,,,,,,,,,,
27601.764,task_3,CC,4,4,,,,4.10949,0.000237673,0.000976714,0.000186055,3.16877e-05,0.0,3.16877e-05,0.000812829,0.000124214,0.0,,0.001,CHARGE,,,,,,,,,,,,,,,,,,,,,,1.75805e+09,,,,,,,,,,,,,,,,,,,,,,,,,,,,,,,,,,,,,,,
27750.664,task_3,CC,4,4,,,,4.19994,0.000237659,0.000998154,0.000195885,4.15175e-05,0.0,4.15175e-05,0.000853671,0.000165056,0.0,,0.001,CHARGE,,,,,,,,,,,,,,,,,,,,,,1.75805e+09,,,,,,,,,,,,,,,,,,,,,,,,,,,,,,,,,,,,,,,
27870.671,task_4,CC,4,4,,,,2.8904,-0.000237362,-0.000686071,0.000187971,0.0,7.91392e-06,7.91392e-06,0.000829789,0.0,2.38815e-05,,0.001,DISCHARGE,,,,,,,,,,,,,,,,,,,,,,1.75805e+09,,,,,,,,,,,,,,,,,,,,,,,,,,,,,,,,,,,,,,,
28020.671,task_4,CC,4,4,,,,2.67911,-0.000237391,-0.000635995,0.000178078,0.0,1.78063e-05,1.78063e-05,0.000802271,0.0,5.14001e-05,,0.001,DISCHARGE,,,,,,,,,,,,,,,,,,,,,,1.75805e+09,,,,,,,,,,,,,,,,,,,,,,,,,,,,,,,,,,,,,,,
28170.671,task_4,CC,4,4,,,,2.49071,-0.000237481,-0.000591498,0.000168186,0.0,2.76988e-05,2.76988e-05,0.000776686,0.0,7.69852e-05,,0.001,DISCHARGE,,,,,,,,,,,,,,,,,,,,,,1.75805e+09,,,,,,,,,,,,,,,,,,,,,,,,,,,,,,,,,,,,,,,
28272.097,task_3,CC,5,5,,,,3.70673,0.000237665,0.000880959,0.000165457,1.9805e-06,0.0,1.9805e-06,0.000772291,7.12053e-06,0.0,,0.001,CHARGE,,,,,,,,,,,,,,,,,,,,,,1.75805e+09,,,,,,,,,,,,,,,,,,,,,,,,,,,,,,,,,,,,,,,
28422.097,task_3,CC,5,5,,,,3.91314,0.000237606,0.000929787,0.000175359,1.18828e-05,0.0,1.18828e-05,0.000810212,4.50415e-05,0.0,,0.001,CHARGE,,,,,,,,,,,,,,,,,,,,,,1.75805e+09,,,,,,,,,,,,,,,,,,,,,,,,,,,,,,,,,,,,,,,
28572.097,task_3,CC,5,5,,,,4.03236,0.000237637,0.000958239,0.000185262,2.17852e-05,0.0,2.17852e-05,0.000849573,8.44021e-05,0.0,,0.001,CHARGE,,,,,,,,,,,,,,,,,,,,,,1.75805e+09,,,,,,,,,,,,,,,,,,,,,,,,,,,,,,,,,,,,,,,
28722.097,task_3,CC,5,5,,,,4.13028,0.000237595,0.000981332,0.000195164,3.16876e-05,0.0,3.16876e-05,0.000890001,0.00012483,0.0,,0.001,CHARGE,,,,,,,,,,,,,,,,,,,,,,1.75805e+09,,,,,,,,,,,,,,,,,,,,,,,,,,,,,,,,,,,,,,,
28836.503,task_4,CC,5,5,,,,3.89084,-0.000233484,-0.000908449,0.000202716,0.0,6.48567e-11,6.48567e-11,0.000921456,0.0,2.52347e-10,,0.001,DISCHARGE,,,,,,,,,,,,,,,,,,,,,,1.75805e+09,,,,,,,,,,,,,,,,,,,,,,,,,,,,,,,,,,,,,,,
28986.503,task_4,CC,5,5,,,,2.85414,-0.00023752,-0.000677915,0.000192824,0.0,9.89235e-06,9.89235e-06,0.000891801,0.0,2.96556e-05,,0.001,DISCHARGE,,,,,,,,,,,,,,,,,,,,,,1.75805e+09,,,,,,,,,,,,,,,,,,,,,,,,,,,,,,,,,,,,,,,
29136.503,task_4,CC,5,5,,,,2.6332,-0.000237358,-0.000625009,0.000182932,0.0,1.97848e-05,1.97848e-05,0.000864681,0.0,5.67759e-05,,0.001,DISCHARGE,,,,,,,,,,,,,,,,,,,,,,1.75805e+09,,,,,,,,,,,,,,,,,,,,,,,,,,,,,,,,,,,,,,,
29286.503,task_4,CC,5,5,,,,2.43557,-0.000237426,-0.000578269,0.000173039,0.0,2.96773e-05,2.96773e-05,0.000839626,0.0,8.1831e-05,,0.001,DISCHARGE,,,,,,,,,,,,,,,,,,,,,,1.75805e+09,,,,,,,,,,,,,,,,,,,,,,,,,,,,,,,,,,,,,,,
29404.954,task_3,CC,6,6,,,,3.83729,0.000237682,0.000912056,0.000177105,5.94144e-06,0.0,5.94144e-06,0.000857247,2.2155e-05,0.0,,0.001,CHARGE,,,,,,,,,,,,,,,,,,,,,,1.75805e+09,,,,,,,,,,,,,,,,,,,,,,,,,,,,,,,,,,,,,,,
29554.954,task_3,CC,6,6,,,,3.98251,0.000237641,0.000946407,0.000187008,1.58439e-05,0.0,1.58439e-05,0.000896021,6.09293e-05,0.0,,0.001,CHARGE,,,,,,,,,,,,,,,,,,,,,,1.75805e+09,,,,,,,,,,,,,,,,,,,,,,,,,,,,,,,,,,,,,,,
29704.954,task_3,CC,6,6,,,,4.08862,0.000237647,0.000971651,0.00019691,2.57463e-05,0.0,2.57463e-05,0.000936005,0.000100913,0.0,,0.001,CHARGE,,,,,,,,,,,,,,,,,,,,,,1.75805e+09,,,,,,,,,,,,,,,,,,,,,,,,,,,,,,,,,,,,,,,
29854.954,task_3,CC,6,6,,,,4.18145,0.000237734,0.000994075,0.000206812,3.56487e-05,0.0,3.56487e-05,0.000976954,0.000141862,0.0,,0.001,CHARGE,,,,,,,,,,,,,,,,,,,,,,1.75805e+09,,,,,,,,,,,,,,,,,,,,,,,,,,,,,,,,,,,,,,,
29945.062,task_4,CC,6,6,,,,3.00139,-0.000237419,-0.000712587,0.000204843,0.0,3.95703e-06,3.95703e-06,0.000973028,0.0,1.22536e-05,,0.001,DISCHARGE,,,,,,,,,,,,,,,,,,,,,,1.75805e+09,,,,,,,,,,,,,,,,,,,,,,,,,,,,,,,,,,,,,,,
30095.062,task_4,CC,6,6,,,,2.75713,-0.000237524,-0.000654884,0.00019495,0.0,1.38495e-05,1.38495e-05,0.000944561,0.0,4.07208e-05,,0.001,DISCHARGE,,,,,,,,,,,,,,,,,,,,,,1.75805e+09,,,,,,,,,,,,,,,,,,,,,,,,,,,,,,,,,,,,,,,
30245.062,task_4,CC,6,6,,,,2.54162,-0.000237496,-0.000603626,0.000185058,0.0,2.3742e-05,2.3742e-05,0.000918376,0.0,6.69057e-05,,0.001,DISCHARGE,,,,,,,,,,,,,,,,,,,,,,1.75805e+09,,,,,,,,,,,,,,,,,,,,,,,,,,,,,,,,,,,,,,,
30354.699,task_3,CC,7,7,,,,2.71559,0.000234897,0.000637883,0.000177828,6.52491e-11,0.0,6.52491e-11,0.000900519,1.7719e-10,0.0,,0.001,CHARGE,,,,,,,,,,,,,,,,,,,,,,1.75805e+09,,,,,,,,,,,,,,,,,,,,,,,,,,,,,,,,,,,,,,,
30504.699,task_3,CC,7,7,,,,3.9192,0.000237636,0.000931346,0.00018773,9.90236e-06,0.0,9.90236e-06,0.000938158,3.76385e-05,0.0,,0.001,CHARGE,,,,,,,,,,,,,,,,,,,,,,1.75805e+09,,,,,,,,,,,,,,,,,,,,,,,,,,,,,,,,,,,,,,,
30654.699,task_3,CC,7,7,,,,4.04123,0.000237688,0.000960552,0.000197633,1.98047e-05,0.0,1.98047e-05,0.000977604,7.70852e-05,0.0,,0.001,CHARGE,,,,,,,,,,,,,,,,,,,,,,1.75805e+09,,,,,,,,,,,,,,,,,,,,,,,,,,,,,,,,,,,,,,,
30804.699,task_3,CC,7,7,,,,4.13719,0.000237649,0.0009832,0.000207535,2.97071e-05,0.0,2.97071e-05,0.0010181,0.000117585,0.0,,0.001,CHARGE,,,,,,,,,,,,,,,,,,,,,,1.75805e+09,,,,,,,,,,,,,,,,,,,,,,,,,,,,,,,,,,,,,,,
30906.239,task_4,CC,7,7,,,,3.88413,-0.000233395,-0.000906536,0.000214238,0.0,6.48319e-11,6.48319e-11,0.00104605,0.0,2.51816e-10,,0.001,DISCHARGE,,,,,,,,,,,,,,,,,,,,,,1.75805e+09,,,,,,,,,,,,,,,,,,,,,,,,,,,,,,,,,,,,,,,
31056.239,task_4,CC,7,7,,,,2.8508,-0.000237398,-0.000676774,0.000204346,0.0,9.89242e-06,9.89242e-06,0.00101646,0.0,2.95866e-05,,0.001,DISCHARGE,,,,,,,,,,,,,,,,,,,,,,1.75805e+09,,,,,,,,,,,,,,,,,,,,,,,,,,,,,,,,,,,,,,,
31206.239,task_4,CC,7,7,,,,2.61637,-0.000237418,-0.000621172,0.000194453,0.0,1.97848e-05,1.97848e-05,0.00098945,0.0,5.6596e-05,,0.001,DISCHARGE,,,,,,,,,,,,,,,,,,,,,,1.75805e+09,,,,,,,,,,,,,,,,,,,,,,,,,,,,,,,,,,,,,,,
31356.239,task_4,CC,7,7,,,,2.41438,-0.000237373,-0.000573108,0.000184561,0.0,2.96772e-05,2.96772e-05,0.000964588,0.0,8.14582e-05,,0.001,DISCHARGE,,,,,,,,,,,,,,,,,,,,,,1.75805e+09,,,,,,,,,,,,,,,,,,,,,,,,,,,,,,,,,,,,,,,
31457.587,task_3,CC,8,8,,,,3.86659,0.000237655,0.000918915,0.000189755,5.94144e-06,0.0,5.94144e-06,0.000985108,2.23189e-05,0.0,,0.001,CHARGE,,,,,,,,,,,,,,,,,,,,,,1.75805e+09,,,,,,,,,,,,,,,,,,,,,,,,,,,,,,,,,,,,,,,
31607.587,task_3,CC,8,8,,,,4.00966,0.00023762,0.000952774,0.000199657,1.58437e-05,0.0,1.58437e-05,0.00102416,6.13762e-05,0.0,,0.001,CHARGE,,,,,,,,,,,,,,,,,,,,,,1.75805e+09,,,,,,,,,,,,,,,,,,,,,,,,,,,,,,,,,,,,,,,
31757.587,task_3,CC,8,8,,,,4.10912,0.000237673,0.000976626,0.00020956,2.5746e-05,0.0,2.5746e-05,0.00106438,0.000101588,0.0,,0.001,CHARGE,,,,,,,,,,,,,,,,,,,,,,1.75805e+09,,,,,,,,,,,,,,,,,,,,,,,,,,,,,,,,,,,,,,,
31903.261,task_3,CC,8,8,,,,4.19998,0.000237666,0.00099819,0.000219176,3.53628e-05,0.0,3.53628e-05,0.00110433,0.000141542,0.0,,0.001,CHARGE,,,,,,,,,,,,,,,,,,,,,,1.75805e+09,,,,,,,,,,,,,,,,,,,,,,,,,,,,,,,,,,,,,,,
32023.268,task_4,CC,8,8,,,,2.89596,-0.000237418,-0.000687552,0.000211262,0.0,7.91399e-06,7.91399e-06,0.00108047,0.0,2.38577e-05,,0.001,DISCHARGE,,,,,,,,,,,,,,,,,,,,,,1.75805e+09,,,,,,,,,,,,,,,,,,,,,,,,,,,,,,,,,,,,,,,
32173.268,task_4,CC,8,8,,,,2.6539,-0.000237403,-0.000630042,0.00020137,0.0,1.78065e-05,1.78065e-05,0.00105303,0.0,5.12997e-05,,0.001,DISCHARGE,,,,,,,,,,,,,,,,,,,,,,1.75805e+09,,,,,,,,,,,,,,,,,,,,,,,,,,,,,,,,,,,,,,,
32323.268,task_4,CC,8,8,,,,2.44373,-0.000237415,-0.00058018,0.000191477,0.0,2.76991e-05,2.76991e-05,0.00102784,0.0,7.64886e-05,,0.001,DISCHARGE,,,,,,,,,,,,,,,,,,,,,,1.75805e+09,,,,,,,,,,,,,,,,,,,,,,,,,,,,,,,,,,,,,,,
32417.167,task_3,CC,9,9,,,,3.83393,0.000237682,0.000911256,0.000193203,3.96096e-06,0.0,3.96096e-06,0.00103718,1.47501e-05,0.0,,0.001,CHARGE,,,,,,,,,,,,,,,,,,,,,,1.75805e+09,,,,,,,,,,,,,,,,,,,,,,,,,,,,,,,,,,,,,,,
32567.167,task_3,CC,9,9,,,,3.99739,0.000237611,0.000949825,0.000203106,1.38633e-05,0.0,1.38633e-05,0.00107606,5.36246e-05,0.0,,0.001,CHARGE,,,,,,,,,,,,,,,,,,,,,,1.75805e+09,,,,,,,,,,,,,,,,,,,,,,,,,,,,,,,,,,,,,,,
32717.167,task_3,CC,9,9,,,,4.09856,0.000237594,0.000973793,0.000213008,2.37656e-05,0.0,2.37656e-05,0.00111616,9.37282e-05,0.0,,0.001,CHARGE,,,,,,,,,,,,,,,,,,,,,,1.75805e+09,,,,,,,,,,,,,,,,,,,,,,,,,,,,,,,,,,,,,,,
32867.167,task_3,CC,9,9,,,,4.19255,0.000237564,0.000995998,0.00022291,3.36679e-05,0.0,3.36679e-05,0.00115721,0.000134779,0.0,,0.001,CHARGE,,,,,,,,,,,,,,,,,,,,,,1.75805e+09,,,,,,,,,,,,,,,,,,,,,,,,,,,,,,,,,,,,,,,
32969.081,task_4,CC,9,9,,,,2.93379,-0.000237448,-0.000696624,0.000217761,0.0,5.9355e-06,5.9355e-06,0.00114245,0.0,1.80543e-05,,0.001,DISCHARGE,,,,,,,,,,,,,,,,,,,,,,1.75805e+09,,,,,,,,,,,,,,,,,,,,,,,,,,,,,,,,,,,,,,,
33119.081,task_4,CC,9,9,,,,2.69457,-0.000237421,-0.000639746,0.000207868,0.0,1.58279e-05,1.58279e-05,0.00111458,0.0,4.59287e-05,,0.001,DISCHARGE,,,,,,,,,,,,,,,,,,,,,,1.75805e+09,,,,,,,,,,,,,,,,,,,,,,,,,,,,,,,,,,,,,,,
33269.081,task_4,CC,9,9,,,,2.47446,-0.000237461,-0.000587588,0.000197976,0.0,2.57205e-05,2.57205e-05,0.00108904,0.0,7.14658e-05,,0.001,DISCHARGE,,,,,,,,,,,,,,,,,,,,,,1.75805e+09,,,,,,,,,,,,,,,,,,,,,,,,,,,,,,,,,,,,,,,
33385.436,task_3,CC,10,10,,,,3.84545,0.000237709,0.000914099,0.000198221,3.961e-06,0.0,3.961e-06,0.00109478,1.4795e-05,0.0,,0.001,CHARGE,,,,,,,,,,,,,,,,,,,,,,1.75805e+09,,,,,,,,,,,,,,,,,,,,,,,,,,,,,,,,,,,,,,,
33535.436,task_3,CC,10,10,,,,4.00719,0.000237642,0.000952276,0.000208124,1.38634e-05,0.0,1.38634e-05,0.00113377,5.37788e-05,0.0,,0.001,CHARGE,,,,,,,,,,,,,,,,,,,,,,1.75805e+09,,,,,,,,,,,,,,,,,,,,,,,,,,,,,,,,,,,,,,,
33685.436,task_3,CC,10,10,,,,4.10578,0.000237683,0.000975874,0.000218026,2.37657e-05,0.0,2.37657e-05,0.00117395,9.39622e-05,0.0,,0.001,CHARGE,,,,,,,,,,,,,,,,,,,,,,1.75805e+09,,,,,,,,,,,,,,,,,,,,,,,,,,,,,,,,,,,,,,,
33835.436,task_3,CC,10,10,,,,4.19987,0.000237629,0.000998008,0.000227929,3.36681e-05,0.0,3.36681e-05,0.00121507,0.000135085,0.0,,0.001,CHARGE,,,,,,,,,,,,,,,,,,,,,,1.75805e+09,,,,,,,,,,,,,,,,,,,,,,,,,,,,,,,,,,,,,,,
33925.578,task_4,CC,10,10,,,,2.92795,-0.000237454,-0.000695252,0.000222002,0.0,5.93557e-06,5.93557e-06,0.00119708,0.0,1.80262e-05,,0.001,DISCHARGE,,,,,,,,,,,,,,,,,,,,,,1.75805e+09,,,,,,,,,,,,,,,,,,,,,,,,,,,,,,,,,,,,,,,
34075.578,task_4,CC,10,10,,,,2.69046,-0.00023743,-0.000638796,0.000212109,0.0,1.58281e-05,1.58281e-05,0.00116925,0.0,4.58606e-05,,0.001,DISCHARGE,,,,,,,,,,,,,,,,,,,,,,1.75805e+09,,,,,,,,,,,,,,,,,,,,,,,,,,,,,,,,,,,,,,,
34225.578,task_4,CC,10,10,,,,2.46833,-0.000237371,-0.000585909,0.000202217,0.0,2.57207e-05,2.57207e-05,0.00114377,0.0,7.13434e-05,,0.001,DISCHARGE,,,,,,,,,,,,,,,,,,,,,,1.75805e+09,,,,,,,,,,,,,,,,,,,,,,,,,,,,,,,,,,,,,,,
34277.108,task_7,CC,11,,1,,,2.49565,-0.00212201,-0.0052958,0.000198839,0.0,5.89447e-10,5.89447e-10,0.00113557,0.0,1.47105e-09,,0.01,DISCHARGE,,,,,,,,,,,,,,,,,,,,,,1.75805e+09,,,,,,,,,,,,,,,,,,,,,,,,,,,,,,,,,,,,,,,
34277.148,task_7,CC,12,,2,,,2.10832,-0.00231834,-0.0048878,0.000198842,0.0,2.50097e-09,2.50097e-09,0.00113559,0.0,5.68424e-09,,0.01,DISCHARGE,,,,,,,,,,,,,,,,,,,,,,1.75805e+09,,,,,,,,,,,,,,,,,,,,,,,,,,,,,,,,,,,,,,,
34277.199,task_6,CC,14,,4,,,3.59397,0.00209266,0.00752097,0.000198847,5.81295e-10,0.0,5.81295e-10,0.00113562,2.08916e-09,0.0,,0.01,CHARGE,,,,,,,,,,,,,,,,,,,,,,1.75805e+09,,,,,,,,,,,,,,,,,,,,,,,,,,,,,,,,,,,,,,,
34277.241,task_6,CC,15,,5,,,4.31309,0.00234983,0.010135,0.000198855,5.73571e-09,0.0,5.73571e-09,0.00113565,2.34017e-08,0.0,,0.01,CHARGE,,,,,,,,,,,,,,,,,,,,,,1.75805e+09,,,,,,,,,,,,,,,,,,,,,,,,,,,,,,,,,,,,,,,
34277.281,task_7,CC,16,,6,,,2.55604,-0.00210308,-0.00537554,0.000198857,0.0,5.84188e-10,5.84188e-10,0.00113567,0.0,1.49321e-09,,0.01,DISCHARGE,,,,,,,,,,,,,,,,,,,,,,1.75805e+09,,,,,,,,,,,,,,,,,,,,,,,,,,,,,,,,,,,,,,,
34277.317,task_7,CC,17,,7,,,2.13075,-0.00231877,-0.00494072,0.000198858,0.0,2.49498e-09,2.49498e-09,0.00113568,0.0,5.74471e-09,,0.01,DISCHARGE,,,,,,,,,,,,,,,,,,,,,,1.75805e+09,,,,,,,,,,,,,,,,,,,,,,,,,,,,,,,,,,,,,,,
34277.366,task_6,CC,19,,9,,,3.64717,0.00208504,0.0076045,0.000198861,5.79179e-10,0.0,5.79179e-10,0.0011357,2.11236e-09,0.0,,0.01,CHARGE,,,,,,,,,,,,,,,,,,,,,,1.75805e+09,,,,,,,,,,,,,,,,,,,,,,,,,,,,,,,,,,,,,,,
34277.405,task_6,CC,20,,10,,,4.32303,0.00233822,0.0101082,0.000198867,4.42261e-09,0.0,4.42261e-09,0.00113573,1.80737e-08,0.0,,0.01,CHARGE,,,,,,,,,,,,,,,,,,,,,,1.75805e+09,,,,,,,,,,,,,,,,,,,,,,,,,,,,,,,,,,,,,,,
34277.44,task_10,CC,21,,,1,,1.97608,-0.00428346,-0.00846444,0.000198867,0.0,1.18985e-09,1.18985e-09,0.00113574,0.0,2.35123e-09,,0.01,DISCHARGE,,,,,,,,,,,,,,,,,,,,,,1.75805e+09,,,,,,,,,,,,,,,,,,,,,,,,,,,,,,,,,,,,,,,
34277.469,task_10,CC,22,,,2,,1.42147,-0.00465006,-0.0066099,0.000198865,0.0,3.75804e-09,3.75804e-09,0.00113574,0.0,6.16543e-09,,0.01,DISCHARGE,,,,,,,,,,,,,,,,,,,,,,1.75805e+09,,,,,,,,,,,,,,,,,,,,,,,,,,,,,,,,,,,,,,,
34277.513,task_9,CC,24,,,4,,4.20038,0.00427337,0.0179498,0.000198867,1.18705e-09,0.0,1.18705e-09,0.00113577,4.98606e-09,0.0,,0.01,CHARGE,,,,,,,,,,,,,,,,,,,,,,1.75805e+09,,,,,,,,,,,,,,,,,,,,,,,,,,,,,,,,,,,,,,,
34277.543,task_9,CC,25,,,5,,4.94712,0.00463254,0.0229177,0.000198871,5.01516e-09,0.0,5.01516e-09,0.00113579,2.32082e-08,0.0,,0.01,CHARGE,,,,,,,,,,,,,,,,,,,,,,1.75805e+09,,,,,,,,,,,,,,,,,,,,,,,,,,,,,,,,,,,,,,,
34277.578,task_10,CC,26,,,6,,1.99384,-0.00429936,-0.00857224,0.000198871,0.0,1.19427e-09,1.19427e-09,0.00113581,0.0,2.38118e-09,,0.01,DISCHARGE,,,,,,,,,,,,,,,,,,,,,,1.75805e+09,,,,,,,,,,,,,,,,,,,,,,,,,,,,,,,,,,,,,,,
34277.607,task_10,CC,27,,,7,,1.42327,-0.00464704,-0.00661398,0.000198869,0.0,3.75748e-09,3.75748e-09,0.00113582,0.0,6.18216e-09,,0.01,DISCHARGE,,,,,,,,,,,,,,,,,,,,,,1.75805e+09,,,,,,,,,,,,,,,,,,,,,,,,,,,,,,,,,,,,,,,
34277.651,task_9,CC,29,,,9,,4.2062,0.00427155,0.017967,0.000198871,1.18654e-09,0.0,1.18654e-09,0.00113584,4.99084e-09,0.0,,0.01,CHARGE,,,,,,,,,,,,,,,,,,,,,,1.75805e+09,,,,,,,,,,,,,,,,,,,,,,,,,,,,,,,,,,,,,,,
34277.681,task_9,CC,30,,,10,,4.96351,0.00463211,0.0229915,0.000198875,5.01256e-09,0.0,5.01256e-09,0.00113587,2.32558e-08,0.0,,0.01,CHARGE,,,,,,,,,,,,,,,,,,,,,,1.75805e+09,,,,,,,,,,,,,,,,,,,,,,,,,,,,,,,,,,,,,,,
24610.308,task_4,CC,1,1,,,,,,,,,,,,,,,,DISCHARGE,,,,,,,,,,,,,,,,,,,,,,1758042787.308,545.824,2.39996,3.90204,2.75661,3.90204,2.4,-0.000237548,-0.000233628,-0.000237414,-0.000233628,-0.000237454,-3.59963e-05,0.0,3.59963e-05,-9.92275e-05,0.0,9.92275e-05,-0.000911625,-0.000569578,,,,,,,,,,,,,,,,,,,,
27750.665,task_3,CC,4,4,,,,,,,,,,,,,,,,CHARGE,,,,,,,,,,,,,,,,,,,,,,1758045927.665,628.901,2.72285,4.2,3.97558,2.72285,4.19994,0.000234904,0.000237849,0.000237657,0.000234904,0.000237659,4.15175e-05,4.15175e-05,0.0,0.000165056,0.000165056,0.0,0.000639609,0.000998545,,,,,,,,,,,,,,,,,,,,
30354.684,task_4,CC,6,6,,,,,,,,,,,,,,,,DISCHARGE,,,,,,,,,,,,,,,,,,,,,,1758048531.684,469.622,2.39999,3.88746,2.73679,3.88746,2.40001,-0.000237565,-0.000233507,-0.000237419,-0.000233507,-0.000237426,-3.09715e-05,0.0,3.09715e-05,-8.47623e-05,0.0,8.47623e-05,-0.000907748,-0.000569602,,,,,,,,,,,,,,,,,,,,
32879.075,task_3,CC,9,9,,,,,,,,,,,,,,,,CHARGE,,,,,,,,,,,,,,,,,,,,,,1758051056.075,521.908,2.71953,4.20002,4.00759,2.71953,4.19995,0.000234814,0.000237841,0.000237655,0.000234814,0.000237719,3.44539e-05,3.44539e-05,0.0,0.000138077,0.000138077,0.0,0.000638583,0.000998729,,,,,,,,,,,,,,,,,,,,
34277.112,task_7,CC,11,,1,,,,,,,,,,,,,,,DISCHARGE,,,,,,,,,,,,,,,,,,,,,,1758052454.112,0.004,2.09464,2.49565,2.2611,2.49565,2.09464,-0.00231681,-0.00212201,-0.00225323,-0.00212201,-0.00231681,-2.50359e-09,0.0,2.50359e-09,-5.64825e-09,0.0,5.64825e-09,-0.0052958,-0.00485287,,,,,,,,,,,,,,,,,,,,
34277.208,task_6,CC,14,,4,,,,,,,,,,,,,,,CHARGE,,,,,,,,,,,,,,,,,,,,,,1758052454.208,0.009,3.59397,4.28871,4.05352,3.59397,4.28871,0.00209266,0.0023502,0.00229555,0.00209266,0.0023502,5.73888e-09,5.73888e-09,0.0,2.33012e-08,2.33012e-08,0.0,0.00752097,0.0100793,,,,,,,,,,,,,,,,,,,,
34277.285,task_7,CC,16,,6,,,,,,,,,,,,,,,DISCHARGE,,,,,,,,,,,,,,,,,,,,,,1758052454.285,0.004,2.1251,2.55604,2.30167,2.55604,2.1251,-0.00231922,-0.00210308,-0.00224615,-0.00210308,-0.00231922,-2.49572e-09,0.0,2.49572e-09,-5.72925e-09,0.0,5.72925e-09,-0.00537554,-0.00492859,,,,,,,,,,,,,,,,,,,,
34277.374,task_6,CC,19,,9,,,,,,,,,,,,,,,CHARGE,,,,,,,,,,,,,,,,,,,,,,1758052454.374,0.008,3.64717,4.34907,4.10133,3.64717,4.34907,0.00208504,0.00234451,0.00228379,0.00208504,0.00234451,5.07508e-09,5.07508e-09,0.0,2.0852e-08,2.0852e-08,0.0,0.0076045,0.0101964,,,,,,,,,,,,,,,,,,,,
34277.443,task_10,CC,21,,,1,,,,,,,,,,,,,,DISCHARGE,,,,,,,,,,,,,,,,,,,,,,1758052454.443,0.003,1.45185,1.97608,1.67869,1.97608,1.45185,-0.00465135,-0.00428346,-0.00450756,-0.00428346,-0.00465135,-3.7563e-09,0.0,3.7563e-09,-6.27652e-09,0.0,6.27652e-09,-0.00846444,-0.00675308,,,,,,,,,,,,,,,,,,,,
34277.516,task_9,CC,24,,,4,,,,,,,,,,,,,,CHARGE,,,,,,,,,,,,,,,,,,,,,,1758052454.516,0.003,4.20038,4.81901,4.53981,4.20038,4.81901,0.00427337,0.00459875,0.00447014,0.00427337,0.00459875,3.72511e-09,3.72511e-09,0.0,1.6941e-08,1.6941e-08,0.0,0.0179498,0.0221614,,,,,,,,,,,,,,,,,,,,
34277.581,task_10,CC,26,,,6,,,,,,,,,,,,,,DISCHARGE,,,,,,,,,,,,,,,,,,,,,,1758052454.581,0.003,1.46672,1.99384,1.69783,1.99384,1.46672,-0.0046408,-0.00429936,-0.004507,-0.00429936,-0.0046408,-3.75583e-09,0.0,3.75583e-09,-6.34975e-09,0.0,6.34975e-09,-0.00857224,-0.00680677,,,,,,,,,,,,,,,,,,,,
34277.654,task_9,CC,29,,,9,,,,,,,,,,,,,,CHARGE,,,,,,,,,,,,,,,,,,,,,,1758052454.654,0.003,4.2062,4.83013,4.54819,4.2062,4.83013,0.00427155,0.00459627,0.00446795,0.00427155,0.00459627,3.72329e-09,3.72329e-09,0.0,1.69641e-08,1.69641e-08,0.0,0.017967,0.0222006,,,,,,,,,,,,,,,,,,,,
25924.901,task_2,LOOP,2,2,,,,,,,,,,,,,,,,,,,,,,,,,,,,,,,,,,,,,,1758044101.901,,,,,,,,,,,,,,,,,,,,,,2,1,2.0,1314.57,1.61769e-05,5.14618e-05,3.52849e-05,0.000106152,0.000202849,9.6697e-05,,,,,,,,
31367.575,task_2,LOOP,7,7,,,,,,,,,,,,,,,,,,,,,,,,,,,,,,,,,,,,,,1758049544.575,,,,,,,,,,,,,,,,,,,,,,7,1,7.0,1012.87,5.98538e-06,3.641e-05,3.04246e-05,6.22696e-05,0.000145527,8.32572e-05,,,,,,,,
34277.152,task_5,LOOP,12,,2,,,,,,,,,,,,,,,,,,,,,,,,,,,,,,,,,,,,,1758052454.152,,,,,,,,,,,,,,,,,,,,,,2,2,2.0,0.016,5.2122e-09,7.71317e-09,2.50097e-09,2.55634e-08,3.12476e-08,5.68424e-09,,,,,,,,
34277.321,task_5,LOOP,17,,7,,,,,,,,,,,,,,,,,,,,,,,,,,,,,,,,,,,,,1758052454.321,,,,,,,,,,,,,,,,,,,,,,7,2,7.0,0.012,2.58295e-09,5.07793e-09,2.49498e-09,1.49797e-08,2.07244e-08,5.74471e-09,,,,,,,,
34277.473,task_8,LOOP,22,,,2,,,,,,,,,,,,,,,,,,,,,,,,,,,,,,,,,,,,1758052454.473,,,,,,,,,,,,,,,,,,,,,,2,3,2.0,0.006,-3.51062e-11,3.72294e-09,3.75804e-09,1.08084e-08,1.69739e-08,6.16543e-09,,,,,,,,
34277.611,task_8,LOOP,27,,,7,,,,,,,,,,,,,,,,,,,,,,,,,,,,,,,,,,,,1758052454.611,,,,,,,,,,,,,,,,,,,,,,7,3,7.0,0.006,-3.48566e-11,3.72262e-09,3.75748e-09,1.07934e-08,1.69755e-08,6.18216e-09,,,,,,,,
25924.901,,,2,,,,,,,,,,,,,,,,,,,,,,,,,,,,,,,,,,,,,,,1758044101.901,,,,,,,,,,,,,,,,,,,,,,,,,,,,,,,,1314.58,1.61769e-05,5.14618e-05,3.52849e-05,0.685652,0.000106152,0.000202849,9.6697e-05
31367.575,,,7,,,,,,,,,,,,,,,,,,,,,,,,,,,,,,,,,,,,,,,1758049544.575,,,,,,,,,,,,,,,,,,,,,,,,,,,,,,,,1012.88,5.98538e-06,3.641e-05,3.04246e-05,0.835611,6.22696e-05,0.000145527,8.32572e-05
34277.152,,,12,,,,,,,,,,,,,,,,,,,,,,,,,,,,,,,,,,,,,,,1758052454.152,,,,,,,,,,,,,,,,,,,,,,,,,,,,,,,,0.025,5.2122e-09,7.71317e-09,2.50097e-09,0.324247,2.55634e-08,3.12476e-08,5.68424e-09
34277.321,,,17,,,,,,,,,,,,,,,,,,,,,,,,,,,,,,,,,,,,,,,1758052454.321,,,,,,,,,,,,,,,,,,,,,,,,,,,,,,,,0.021,2.58295e-09,5.07793e-09,2.49498e-09,0.491338,1.49797e-08,2.07244e-08,5.74471e-09
34277.473,,,22,,,,,,,,,,,,,,,,,,,,,,,,,,,,,,,,,,,,,,,1758052454.473,,,,,,,,,,,,,,,,,,,,,,,,,,,,,,,,0.015,-3.51062e-11,3.72294e-09,3.75804e-09,1.00943,1.08084e-08,1.69739e-08,6.16543e-09
34277.611,,,27,,,,,,,,,,,,,,,,,,,,,,,,,,,,,,,,,,,,,,,1758052454.611,,,,,,,,,,,,,,,,,,,,,,,,,,,,,,,,0.015,-3.48566e-11,3.72262e-09,3.75748e-09,1.00936,1.07934e-08,1.69755e-08,6.18216e-09
34277.694,,,30,,,,,,,,,,,,,,,,,,,,,,,,,,,,,,,,,,,,,,,1758052454.694,,,,,,,,,,,,,,,,,,,,,,,,,,,,,,,,0.016,1.25709e-09,5.01256e-09,3.75547e-09,0.749211,1.69289e-08,2.32558e-08,6.32692e-09